acc_timestamp_usec,acc_x,acc_y,acc_z,gyro_timestamp_usec,gyro_x,gyro_y,gyro_z
200077,0.0580568,-0.0143795,-9.78573,200077,-0.0058945,0.00780532,0.00728129
200677,0.0344876,0.00462609,-9.79512,200677,-0.00588933,0.00780549,0.00789116
201288,0.0249943,0.00463598,-9.78555,201288,-0.00832111,0.00476378,0.00725989
201900,0.0342459,-0.00484427,-9.74752,201900,-0.00648596,0.00537284,0.0091051
202511,0.0907607,0.00465312,-9.71925,202511,-0.00647493,0.00902247,0.0103258
203111,0.10515,-0.000130856,-9.76216,203111,-0.00585784,0.0102394,0.011551
203722,0.067654,-0.0286536,-9.81435,203722,-0.0058945,0.00780532,0.00728129
204333,0.0534233,-0.0523918,-9.80001,204333,-0.00649078,0.00719733,0.00849572
204933,0.0768168,-0.0618746,-9.7573,204933,-0.00711798,0.00719655,0.0060511
205544,0.0954223,-0.0285938,-9.70501,205544,-0.00466125,0.00537335,0.0097304
206144,0.0718155,0.0236692,-9.70962,206144,-0.0028315,0.00476581,0.0109654
206755,0.0769398,-0.000135114,-9.78582,206755,-0.00769898,0.00537261,0.00909481
207366,0.0959189,-0.0429073,-9.80022,207366,-0.00773035,0.00354696,0.00543509
207966,0.0720194,0.00464205,-9.74771,207966,-0.0065063,0.00719683,0.00666611
208577,0.0627223,0.00462726,-9.77622,208577,-0.00589967,0.00780516,0.00667142
209188,0.0438487,-0.0333702,-9.77615,209188,-0.00345238,0.0108474,0.0091323
209800,0.0294974,-8.87141e-05,-9.74273,209800,-0.0064955,0.00963003,0.00788652
210400,0.0531516,0.0141476,-9.75237,210400,-0.00405371,0.0108474,0.00973703
211011,0.0625487,0.00939947,-9.7429,211011,-0.00346261,0.0114552,0.00791273
211622,0.0484425,-0.0191048,-9.75236,211622,-0.00163353,0.0071984,0.00914673
212222,0.0531759,-0.0476103,-9.75241,212222,-0.00164388,0.00719807,0.00792699
212833,0.0957868,-0.0191388,-9.77641,212833,-0.00225016,0.00841439,0.00792219
213444,0.0959265,-0.000154909,-9.80496,213444,-0.00287701,0.0102383,0.00547805
214044,0.0769115,0.0093692,-9.78105,214044,-0.00285161,0.00780623,0.00852675
214655,0.0719948,0.00464514,-9.74295,214655,-0.00347858,0.00902188,0.00608245
215266,0.0578132,-0.0190992,-9.73813,215266,-0.00467068,0.0102388,0.00851198
215877,0.043777,-0.0381115,-9.76187,215877,0.000175769,0.00780663,0.00794259
216477,0.0437316,-0.0476066,-9.75236,216477,-0.0040436,0.00963131,0.0109564
217088,0.0720458,-0.000111647,-9.75247,217088,-0.00347352,0.00841383,0.00669215
217700,0.0816883,-0.00489067,-9.79061,217700,-0.00410105,0.0065884,0.00424703
218300,0.0958433,-0.0381475,-9.78594,218300,-0.000451427,0.00780585,0.00549796
218911,0.105135,-0.0238808,-9.75742,218911,-0.00107368,0.00658881,0.00366287
219522,0.109693,-0.0428635,-9.72413,219522,-0.000452114,0.00415655,0.00549697
220122,0.109912,-0.0381407,-9.76697,220122,0.000154397,0.00415667,0.00550211
220733,0.0864916,-0.0239042,-9.80492,220733,0.000761479,0.00719787,0.00550808
221344,0.06752,-0.000134476,-9.79053,221344,0.000751482,0.00902219,0.00428884
221944,0.0722611,0.0141124,-9.7953,221944,-0.00043017,0.0108476,0.00793828
222555,0.105346,-0.000155548,-9.80024,222555,0.00080388,0.0126731,0.0103885
223166,0.100692,-0.047666,-9.80977,223166,-0.00105265,0.00841412,0.00610285
223766,0.05817,-0.0523967,-9.8048,223766,-0.00164365,0.00841451,0.00792733
224377,0.0533026,0.0046279,-9.78093,224377,-0.00107357,0.00719703,0.00366304
224988,0.043862,-0.0048696,-9.78089,224988,0.000792393,0.00659065,0.00916714
225588,0.0296615,-0.0428627,-9.77132,225588,0.00137316,0.00719815,0.00612309
226200,0.0484783,-0.0476115,-9.75714,226200,0.00258572,0.00476551,0.00613272
226811,0.0579794,-0.00486902,-9.77144,226811,0.000144742,0.00780564,0.00428336
227411,0.0673236,-0.000109784,-9.75245,227411,-0.000441428,0.00598153,0.00671721
228022,0.105161,-0.0286345,-9.76218,228022,-0.000425458,0.0084149,0.00854748
228633,0.095849,-0.0523993,-9.78595,228633,0.00200035,0.00719892,0.00856772
229233,0.0722155,-0.0571375,-9.78107,229233,0.0019745,0.0071981,0.00551837
229844,0.0720778,-0.0191172,-9.75725,229844,0.00376794,0.00598117,0.00248411
230455,0.0484484,0.0283983,-9.75709,230455,0.00136271,0.0065896,0.00490319
231066,0.067588,0.0141081,-9.8048,231066,0.00439008,0.00659001,0.00431903
231666,0.119496,-0.0191605,-9.79557,231666,0.00500682,0.00598223,0.00554375
232277,0.100552,-0.00489504,-9.78594,232277,0.00437951,0.00537324,0.00309896
232888,0.0768907,-0.000128942,-9.7763,232888,0.00440605,0.00902337,0.0061493
233488,0.0768397,0.00462784,-9.76677,233488,0.00319257,0.00659027,0.00613836
234100,0.0628168,0.0141161,-9.79526,234100,0.00443122,0.0053749,0.00919767
234700,0.0724026,-0.0334091,-9.81914,234700,0.00378311,0.00415702,0.00431323
235311,0.0488126,-0.0239017,-9.82377,235311,0.00561827,0.00476608,0.00615843
235922,0.0486786,0.00461741,-9.79995,235922,0.00378357,0.00658989,0.00431389
236533,0.0721874,0.0141217,-9.78102,236533,0.00441536,0.00354975,0.00736756
237133,0.0483785,0.0189063,-9.74282,237133,0.00254435,0.00476418,0.00125375
237744,0.0436374,0.0046594,-9.73804,237744,0.00560276,0.00476558,0.00432882
238355,0.0816411,-0.00963511,-9.78109,238355,0.00316109,0.00415641,0.00247847
238955,0.0674407,0.0141266,-9.77624,238955,0.0032182,0.00537467,0.00918738
239566,0.0342725,0.0521569,-9.757,239566,0.00380426,0.00659055,0.00675337
240177,0.0249188,0.00939585,-9.77126,240177,0.00382574,0.0108487,0.00919401
240777,0.0390228,-0.0191041,-9.75708,240777,0.0050067,0.00537401,0.00554359
241388,0.0342611,0.0189057,-9.75227,241388,0.00501165,0.00415775,0.00615312
242000,0.0297655,0.00462795,-9.79509,242000,0.0013835,0.00719848,0.00734284
242600,0.0439394,-0.0143801,-9.79518,242600,0.00442099,0.00598278,0.00797809
243211,0.0390889,-0.000110956,-9.77134,243211,0.00442639,0.00719938,0.00858829
243822,0.067484,-0.0333826,-9.78103,243822,0.00381368,0.00172515,0.00797179
244422,0.0816128,-0.000130804,-9.77632,244422,0.00744274,0.00355015,0.0067834
245033,0.0485353,0.0568896,-9.77611,245033,0.00558782,0.00780617,0.00250003
245644,0.0438999,0.0236279,-9.79039,245644,0.00682106,0.00537419,0.00494914
246255,0.0487635,-0.0238955,-9.81425,246255,0.00621444,0.00476586,0.00494383
246855,0.0204005,-0.00962942,-9.80933,246855,0.00560736,0.00172466,0.00493786
247466,0.0201683,0.018902,-9.76647,247466,0.00620467,0.00780661,0.00372492
248077,0.0484916,-0.019111,-9.76188,248077,0.0019799,0.00841469,0.00612857
248677,0.0864292,-0.0523987,-9.79066,248677,0.00256538,0.0065895,0.00369373
249288,0.0960566,-0.0809277,-9.82405,249288,0.000755621,0.0035484,0.00489722
249900,0.0582265,-0.0714054,-9.81433,249900,0.00258583,0.00537372,0.00613288
250500,0.0296295,-0.0238572,-9.76655,250500,0.0019637,0.0047649,0.00429796
251111,0.0389643,0.00465509,-9.74754,251111,0.000756079,0.00598127,0.00489788
251722,0.062677,-0.00486779,-9.76671,251722,0.00137787,0.00476545,0.0067323
252322,0.0627563,-0.0191289,-9.781,252322,0.00260698,0.00780725,0.00857303
252933,0.0626732,0.00463343,-9.7667,252933,0.00136271,0.0065896,0.00490319
253544,0.0532988,0.0141291,-9.78093,253544,0.000186225,0.00841518,0.00916249
254144,0.0392683,-0.019135,-9.80468,254144,0.000776879,0.00659015,0.00733753
254755,0.0107881,-0.0191053,-9.77597,254755,0.000777109,0.00780658,0.00733786
255366,0.0154518,0.00465205,-9.76646,255366,0.00133719,0.00841342,0.00185433
255966,0.0485199,-0.0286153,-9.76665,255966,0.00200024,0.00659071,0.00856756
256577,0.0626354,-0.0238641,-9.7572,256577,0.00136316,0.00902246,0.00490385
257188,0.0391116,0.00463657,-9.7761,257188,-0.000435913,0.00780635,0.00732757
257788,0.0153536,0.0046644,-9.74742,257788,0.000149798,0.00719759,0.00489307
258400,0.0578831,-0.00960728,-9.75241,258400,-0.00103771,0.00537354,0.00793164
259011,0.0721533,-0.0238771,-9.77153,259011,-0.00165939,0.00719758,0.00609738
259611,0.0579511,0.00463529,-9.76668,259611,-0.00347352,0.00841383,0.00669215
260222,0.0768642,0.00462476,-9.77153,260222,-0.00287792,0.00537253,0.00547673
260833,0.072125,-0.0143727,-9.76676,260833,-0.00104277,0.00598159,0.00732193
261444,0.0296578,-0.0333615,-9.77132,261444,-0.000441313,0.00658975,0.00671737
262044,0.0533157,-0.0286264,-9.78095,262044,-0.000446372,0.0071978,0.00610766
262655,0.0627997,-0.00488323,-9.79051,262655,-0.00288827,0.0053722,0.00425699
263266,0.0297767,-0.0238757,-9.79511,263266,-0.00224096,0.00233255,0.00914027
263866,0.00595634,-0.0523423,-9.75217,263866,-0.00346881,0.00598113,0.00730136
264477,0.0154743,-0.0523553,-9.76649,264477,-0.00285678,0.00780606,0.00791688
265088,0.0487069,-0.0048869,-9.80472,265088,-0.00103725,0.0078064,0.0079323
265688,0.048537,-0.0096159,-9.7714,265688,-0.00405417,0.00841455,0.00973637
266300,0.0863198,-0.0238826,-9.7716,266300,-0.00347363,0.00780561,0.00669199
266911,0.076717,0.00464328,-9.74297,266911,-0.0040436,0.00963131,0.0109564
267511,0.0294067,-0.0190788,-9.72371,267511,-0.00285173,0.00719801,0.00852658
268122,0.0248582,-0.0238492,-9.75701,268122,-0.00526294,0.00354875,0.0103346
268733,0.0343969,-0.014364,-9.77609,268733,-0.00107391,0.00537238,0.00366254
269333,0.0723025,-0.0286462,-9.80009,269333,-0.00164824,0.0114554,0.00731828
269944,0.0532573,-0.00486716,-9.77142,269944,-0.00285081,0.0120637,0.0085279
270555,0.0342139,0.0141613,-9.74275,270555,-0.00105782,0.00841396,0.00549299
271155,0.091059,-0.00488514,-9.77637,271155,-0.00527765,0.00780577,0.00850618
271766,0.0911761,0.00935126,-9.80017,271766,-0.00527271,0.0065895,0.00911571
272377,0.0201155,0.0284094,-9.75695,272377,-0.00344261,0.00780661,0.0103512
272988,0.0201192,0.0189082,-9.75695,272988,0.000766421,0.0059816,0.00611762
273588,0.0535651,0.0235964,-9.83328,273588,-0.00228095,0.00962983,0.00426329
274200,0.0441227,0.0188495,-9.83324,274200,-0.00405866,0.0120637,0.00912749
274811,0.0627242,-0.000123354,-9.77623,274811,-0.00464965,0.0120641,0.010952
275411,0.0627544,-0.0143783,-9.78099,275411,-0.00227096,0.00780551,0.00548253
276022,0.0392626,-0.00488317,-9.80467,276022,-0.00224016,0.00659007,0.00914142
276622,0.0297428,-0.000119578,-9.79034,276622,-0.00470194,0.00902132,0.00485242
277233,0.0202268,-0.0048572,-9.77601,277233,-0.00345261,0.00963093,0.00913197
277844,0.0296617,0.0188921,-9.77604,277844,-0.00653215,0.007196,0.00361676
278455,0.0628224,-0.000135699,-9.79527,278455,-0.00348926,0.0071969,0.00486221
279055,0.0581059,-0.0143857,-9.79525,279055,-0.00531936,0.00597979,0.00362671
279666,0.0534272,-0.000138147,-9.80474,279666,-0.00102691,0.00780674,0.00915204
280277,0.0771492,-0.0334141,-9.82392,280277,-0.00346938,0.00294004,0.00730054
280877,0.0865728,-0.0429159,-9.81922,280877,-0.00346341,0.00719773,0.00791157
281488,0.0770814,0.0140982,-9.81437,281488,-0.00408531,0.00780533,0.00607697
282100,0.0722083,0.0236198,-9.78578,282100,-0.00587347,0.00963064,0.00972127
282700,0.0672198,0.0141544,-9.7334,282700,-0.00349915,0.00962944,0.00364313
283311,0.0246922,0.0236755,-9.72841,283311,-0.0064747,0.0102389,0.0103262
283922,0.0295635,0.0189045,-9.757,283922,-0.0040844,0.0126711,0.0060783
284522,0.072176,-0.0191295,-9.77629,284522,-0.00710729,0.00902153,0.00727133
285133,0.0625957,-0.047611,-9.74769,285133,-0.00230693,0.00902078,0.00121377
285744,0.0578717,-0.0428585,-9.74767,285744,-0.00529339,0.00658884,0.00667623
286344,0.0769,-0.023882,-9.77631,286344,-0.00286184,0.00841411,0.00730717
286955,0.091142,-0.0286475,-9.79067,286955,-0.00526742,0.00719789,0.00972575
287566,0.0676011,-0.0191462,-9.80482,287566,-0.00347869,0.00841366,0.00608228
288166,0.0769624,0.00461241,-9.79058,288166,-0.00104242,0.00780624,0.00732243
288777,0.086284,0.00462412,-9.76682,288777,-0.00228187,0.0047641,0.00426197
289388,0.0579831,-0.0143702,-9.77145,289388,-0.00471757,0.00841261,0.00302264
290000,0.0768774,-0.0286295,-9.77156,290000,-0.00771886,0.00962947,0.00665648
290600,0.0815656,-0.00487524,-9.7668,290600,-0.0028931,0.00719669,0.00364761
291211,0.0578302,-9.98881e-05,-9.74288,291211,-0.00347444,0.0035481,0.00669083
291822,0.0343535,-0.0286097,-9.76658,291822,-0.00228164,0.00598053,0.0042623
292422,0.0533837,-0.0143838,-9.79523,292422,-0.00286104,0.0126716,0.00730832
293033,0.109967,0.00935616,-9.78122,293033,-0.00225935,0.0144962,0.00670409
293644,0.138286,-0.0191556,-9.77663,293644,-0.00222373,0.0114563,0.0109724
294244,0.105114,-0.033379,-9.75266,294244,-0.00287207,0.009022,0.00608759
294855,0.0768,-0.019119,-9.75727,294855,-0.00164859,0.00963078,0.00731778
295466,0.0532629,-0.019119,-9.77143,295466,-0.00228084,0.010238,0.00426346
296066,0.0580096,-0.0191239,-9.77621,296066,-0.00105288,0.00719769,0.00610252
296677,0.0815032,-0.0333697,-9.75254,296677,-0.000503598,0.00537133,-0.000601413
297288,0.0578226,-0.0428523,-9.73815,297288,-0.00106322,0.00719736,0.00488278
297888,0.0484652,-0.0143573,-9.75712,297888,0.000160597,0.00963079,0.00611347
298500,0.091008,-0.000128355,-9.76685,298500,-0.00100094,0.00841578,0.0122016
299111,0.11453,-0.0238784,-9.74795,299111,-0.00106345,0.00598092,0.00488245
299711,0.0814485,-0.0191116,-9.74301,299711,-0.00105828,0.00598109,0.00549232
300288,0.0579284,-0.000112234,-9.76192,300288,-0.00166973,0.00719724,0.00487764
300900,0.0484841,-0.000108508,-9.76187,300900,0.00138362,0.00780669,0.007343
301500,0.0955773,0.0141401,-9.73831,301500,-0.00103714,0.00841462,0.00793247
302111,0.104995,0.0188901,-9.73359,302111,-0.00105277,0.00780591,0.00610269
302722,0.0580191,0.0188779,-9.78095,302722,0.000175539,0.0065902,0.00794226
303322,0.0251434,-0.000133146,-9.81411,303322,-0.00106311,0.00780557,0.00488295
303933,0.0344687,-0.00962266,-9.79037,303933,-0.00103197,0.00841479,0.00854234
304544,0.0391079,0.0141378,-9.77609,304544,0.000751367,0.00841397,0.00428867
305144,0.0673973,-0.000119044,-9.76673,305144,0.00199001,0.00719859,0.00734798
305755,0.0816091,0.00937042,-9.77632,305755,0.00011877,0.00719659,0.00123384
306366,0.0486013,0.0141279,-9.78566,306366,-0.00161216,0.0108484,0.0115872
306977,0.0342988,-0.0143517,-9.75705,306977,0.000139225,0.00598082,0.00367299
307577,0.0437922,-0.0143616,-9.76662,307577,0.00259135,0.00719854,0.00674325
308188,0.0581154,0.0236161,-9.79999,308188,0.000144398,0.00598099,0.00428287
308788,0.0344783,0.0283791,-9.7951,308788,0.00260686,0.00719904,0.00857287
309400,0.0533989,0.00936616,-9.79997,309400,0.00198058,0.012064,0.00612956
310011,0.0629622,0.0188482,-9.82381,310011,0.000803765,0.0120649,0.0103884
310622,0.0676201,-0.00489743,-9.80957,310622,0.00136868,0.0108473,0.00551422
311222,0.0532855,-0.0143715,-9.77619,311222,0.0020107,0.00719926,0.00978746
311833,0.0437167,-0.0096017,-9.75233,311833,0.00197932,0.00537361,0.00612774
312444,0.0579228,0.0141396,-9.76191,312444,0.003192,0.00354919,0.00613753
313044,0.0723121,0.00935563,-9.80483,313044,-0.000431087,0.00598187,0.00793695
313655,0.0723403,-0.000148684,-9.8096,313655,-0.00102691,0.00780674,0.00915204
314266,0.0721648,0.00937415,-9.77627,314266,0.000186112,0.00780696,0.00916233
314866,0.095732,-0.00488083,-9.76688,314866,0.00134731,0.00719732,0.00307374
315477,0.0863048,0.0141223,-9.77158,315477,0.00140442,0.00841557,0.00978266
316088,0.110014,0.0141006,-9.79074,316088,0.00258606,0.00659016,0.00613321
316688,0.124278,0.0140827,-9.80985,316688,0.00138867,0.00719864,0.00795271
317300,0.0770777,0.0235994,-9.81436,317300,0.00258652,0.00902303,0.00613387
317911,0.0201721,0.0094008,-9.76648,317911,0.00262755,0.0071997,0.0110123
318511,0.015312,-0.0143319,-9.73791,318511,0.00377863,0.00780616,0.00370435
319122,0.0579586,-0.0143672,-9.76669,319122,-0.000985196,0.00963271,0.0140315
319733,0.0816317,0.0141179,-9.78107,319733,0.0013889,0.00841508,0.00795304
320333,0.0816184,-0.0143826,-9.77633,320333,0.000781363,0.00294101,0.00794641
320944,0.0720437,-0.0571159,-9.74775,320944,0.00131616,0.00658811,-0.000585653
321555,0.0579058,-0.00485976,-9.75716,321555,0.000212196,0.00902423,0.012212
322155,0.0485503,0.0188847,-9.77614,322155,-0.00164916,0.00658969,0.00731696
322766,0.0531535,0.00939703,-9.75237,322766,-0.000436371,0.00537348,0.00732691
323377,0.100486,0.0378666,-9.77639,323377,-0.000446944,0.00415672,0.00610684
323988,0.0768605,0.014126,-9.77153,323988,0.000745965,0.00719737,0.00367847
324588,0.0389209,-0.00959058,-9.73803,324588,-0.00165893,0.00963044,0.00609804
325200,0.0626562,-0.0143659,-9.76195,325200,0.00139913,0.00780719,0.00917261
325800,0.0626071,-0.0143598,-9.75243,325800,0.000818249,0.00659147,0.0122165
326411,0.0437582,0.00939458,-9.76184,326411,0.002601,0.00354957,0.007962
327022,0.0297239,-0.0143683,-9.78558,327022,-0.00161836,0.00537425,0.0109759
327633,0.0532648,-0.0238696,-9.77143,327633,-0.00165962,0.00598114,0.00609705
328233,0.0484407,-0.0143542,-9.75236,328233,-0.000420744,0.0059822,0.00915669
328844,0.0485426,-0.0238677,-9.77141,328844,-0.00225533,0.00841423,0.00731231
329455,0.0815392,-0.000121543,-9.76204,329455,-0.00162308,0.00780695,0.0103666
330055,0.0860423,-0.00484624,-9.71923,330055,-0.00105277,0.00780591,0.00610269
330666,0.0954468,-0.0285969,-9.70977,330666,0.00198978,0.00598216,0.00734765
331277,0.0624956,-0.042848,-9.72865,331277,-0.000467744,0.00354784,0.00366719
331877,0.0200662,-0.0333393,-9.74271,331877,0.000185996,0.00719875,0.00916216
332488,0.0341685,0.00466621,-9.73323,332488,-0.00408037,0.00658907,0.00668651
333100,0.0485936,-0.0286245,-9.78093,333100,-0.00283092,0.00780689,0.0109662
333700,0.0485936,-0.0286245,-9.78093,333700,-0.00346846,0.00780578,0.00730186
334311,0.0202871,-0.0333671,-9.78555,334311,0.000170024,0.00476538,0.00733189
334922,0.0297559,-0.0333739,-9.79036,334922,0.00133651,0.00476412,0.00185334
335533,0.0580587,-0.0191301,-9.78573,335533,-0.000440741,0.00963084,0.0067182
336133,0.0436769,-0.0333486,-9.74283,336133,0.00197473,0.00841453,0.0055187
336744,0.0105445,-0.0238251,-9.72837,336744,-0.00101599,0.0108482,0.0103726
337344,0.0105125,-0.00481953,-9.7236,337344,0.000217825,0.0114573,0.0128226
337955,0.0295766,-0.0143498,-9.75702,337955,-0.00280484,0.00902415,0.0140159
338566,0.0437751,-0.0333609,-9.76187,338566,-0.00167536,0.00476421,0.00426711
339177,0.0484028,-0.0428517,-9.74286,339177,0.00201024,0.00476639,0.00978681
339777,0.0672311,-0.0143493,-9.73342,339777,0.00253998,0.00902153,0.000645038
340388,0.0859818,-0.0380913,-9.70497,340388,-0.000963708,0.0138909,0.0164721
341000,0.100435,-0.0808863,-9.75743,341000,-0.00285644,0.00963071,0.00791737
341600,0.05817,-0.0523967,-9.8048,341600,0.0020061,0.0102402,0.00917842
342211,0.0292971,-0.0523177,-9.69993,342211,0.000719422,0.00354724,0.000628121
342811,0.0810897,-0.0428184,-9.67163,342811,0.000206796,0.00780763,0.0116018
343422,0.0864009,-0.0428943,-9.78589,343422,-0.00228095,0.00962983,0.00426329
344033,0.0580926,-0.0428863,-9.79051,344033,0.00202678,0.0102408,0.0116179
344644,0.0624465,-0.0428418,-9.71913,344644,-0.000466598,0.00963001,0.00366884
345244,0.0672706,-0.0523573,-9.7382,345244,0.00142016,0.00963251,0.0116126
345855,0.0391228,-0.0238671,-9.77612,345855,0.000144856,0.00841385,0.00428353
346466,0.0437582,0.00939458,-9.76184,346466,0.00262249,0.00780775,0.0104026
347066,0.0956547,0.00462965,-9.75259,347066,0.000181168,0.00902323,0.00855279
347677,0.0909456,-0.0286228,-9.75259,347677,0.000227939,0.0102412,0.014042
348288,0.0438677,-0.0191214,-9.7809,348288,0.000165198,0.00658987,0.00672251
348888,0.0532383,-0.0191159,-9.76667,348888,-0.00102197,0.00659047,0.00976158
349500,0.105137,-0.0286314,-9.75742,349500,0.000148768,0.00172363,0.00489158
350111,0.0957264,0.00937101,-9.76687,350111,0.000766078,0.00415695,0.00611712
350722,0.0815903,0.0568765,-9.77629,350722,0.00199001,0.00719859,0.00734798
351322,0.100411,0.0426265,-9.76211,351322,-0.000441313,0.00658975,0.00671737
351933,0.0813391,0.00940437,-9.72395,351933,0.000170482,0.00719825,0.00733255
352533,0.0720458,-0.000111647,-9.75247,352533,0.00020151,0.00719924,0.0109918
353144,0.0721213,-0.00487152,-9.76676,353144,0.00262203,0.00537488,0.010402
353755,0.0767018,-0.0191067,-9.73823,353755,0.00194784,0.00293975,0.00246785
354366,0.0955072,-0.0571067,-9.71931,354366,0.00442639,0.00719938,0.00858829
354966,0.100384,-0.0761295,-9.74791,354966,0.00260192,0.00841531,0.00796333
355577,0.067467,-0.0523819,-9.77628,355577,0.000803078,0.00841563,0.0103874
356188,0.0106822,-0.0618454,-9.7522,356188,-0.000471769,0.00962984,0.00305897
356788,0.0297445,-0.0666251,-9.78562,356788,0.00264352,0.00963307,0.0128426
357400,0.0298635,-0.0571393,-9.80941,357400,0.0037784,0.00658972,0.00370402
358011,0.0249714,-0.0618664,-9.77607,358011,0.000777451,0.00963123,0.00733835
358611,0.0625221,-0.0476017,-9.73341,358611,-0.000466369,0.0108464,0.00366917
359222,0.0720344,-0.0333628,-9.74773,359222,0.00319269,0.00719849,0.00613852
359833,0.0579888,-0.0286221,-9.77146,359833,0.0037576,0.00598084,0.00126437
360433,0.095628,-0.0523715,-9.74311,360433,0.00261732,0.00780759,0.00979277
361044,0.0956337,-0.0666234,-9.74312,361044,0.00259089,0.00476567,0.00674259
361655,0.0862555,-0.0476264,-9.75734,361655,-0.000436716,0.00354883,0.00732641
362255,0.0863198,-0.0238826,-9.7716,362255,0.00135708,0.00415656,0.00429266
362866,0.0390529,-0.0333591,-9.76184,362866,-0.0016387,0.00719824,0.00853687
363477,0.0672895,-0.0381085,-9.74295,363477,0.000735052,0.00415595,0.0024579
364077,0.119082,-0.0286093,-9.71465,364077,0.000170024,0.00476538,0.00733189
364688,0.123972,-0.0191315,-9.74799,364688,-0.000436028,0.00719814,0.00732741
365300,0.0675974,-0.00964496,-9.80482,365300,-0.00042017,0.00902328,0.00915751
365900,0.0486635,-0.0191326,-9.7952,365900,0.000181053,0.00841501,0.00855263
366511,0.0435126,-0.0523294,-9.70952,366511,-0.00106874,0.00537254,0.00427242
367111,0.0435126,-0.0523294,-9.70952,367111,0.000750795,0.00537288,0.00428784
367722,0.0435145,-0.05708,-9.70952,367722,0.000777109,0.00780658,0.00733786
368333,0.0908456,-0.0238598,-9.73355,368333,0.000164969,0.00537343,0.00672218
368933,0.0909192,-0.0238691,-9.74783,368933,-0.000466941,0.00780536,0.00366835
369544,0.0579151,-0.0286128,-9.75718,369544,-0.000435684,0.00902279,0.0073279
370155,0.038868,-8.31783e-05,-9.7285,370155,0.0025555,0.00902203,0.00247465
370755,0.0576773,0.0141705,-9.71431,370755,0.000772052,0.00841463,0.00672815
371366,0.0768699,-0.00962708,-9.77154,371366,0.00199058,0.0102397,0.0073488
371977,0.0628262,-0.00963692,-9.79527,371977,0.00135293,0.00963035,0.00368427
372577,0.0865047,-0.0571585,-9.80494,372577,0.0032398,0.0102411,0.0116282
373188,0.0817636,-0.0714054,-9.80017,373188,-0.000456713,0.00719747,0.00488793
373800,0.0674141,-0.0428746,-9.76676,373800,0.00199461,0.00415767,0.00795702
374400,0.072159,-0.0381289,-9.77154,374400,-0.000420399,0.00780685,0.00915719
375011,0.0766943,-0.00010425,-9.73822,375011,0.000149339,0.00476472,0.00489241
375622,0.0861423,-0.0096092,-9.73827,375622,-0.00105288,0.00719769,0.00610252
376233,0.081643,-0.0143857,-9.78109,376233,0.000165541,0.00841452,0.00672301
376833,0.0721194,-0.000120906,-9.76675,376833,-0.00104736,0.00902251,0.00671289
377444,0.0672935,0.0141451,-9.74768,377444,-0.00282552,0.00902349,0.0115764
378055,0.0625996,0.00464269,-9.75242,378055,-0.00106379,0.00415627,0.00488195
378655,0.0389568,0.0236575,-9.74753,378655,-0.00162848,0.00659035,0.00975644
379266,0.0153688,0.0284144,-9.75216,379266,-0.00166444,0.00780562,0.00548768
379877,0.024998,-0.00486524,-9.78555,379877,-0.00101634,0.0090235,0.0103721
380477,0.0673727,-0.000115957,-9.76197,380477,0.00262846,0.0120654,0.0110137
381088,0.0531628,-0.014356,-9.75238,381088,-0.000435799,0.00841457,0.00732774
381700,0.034667,-0.014398,-9.82845,381700,-0.000456827,0.00658926,0.00488776
382300,0.0487768,0.00460507,-9.81899,382300,-0.000446714,0.00537315,0.00610717
382911,0.0484425,-0.0191048,-9.75236,382911,0.000771593,0.00598176,0.00672749
383522,0.0768056,-0.0333709,-9.75728,383522,-0.00164905,0.00719791,0.00731712
384122,0.100486,-0.0238882,-9.77168,384122,-0.00102691,0.00780674,0.00915204
384733,0.0956282,0.00938335,-9.74783,384733,-0.000436371,0.00537348,0.00732691
385344,0.0862821,0.00937473,-9.76682,385344,-0.00343778,0.00598212,0.0109606
385944,0.0532439,-0.0333677,-9.76668,385944,-0.00402855,0.00719894,0.0127854
386555,0.0484897,-0.0143603,-9.76188,386555,-0.00468137,0.00841377,0.00729174
387166,0.0958585,-0.0143975,-9.79069,387166,-0.00286712,0.00780573,0.00669713
387766,0.0674539,-0.0191277,-9.77626,387766,-0.00405946,0.00780616,0.00912633
388377,0.0484313,0.00939889,-9.75235,388377,-0.00407474,0.0090221,0.00729705
388988,0.0672935,0.0141451,-9.74768,388988,-0.00468137,0.00841377,0.00729174
389588,0.0484521,0.018897,-9.7571,389588,-0.00470699,0.00962938,0.00424272
390200,0.0343537,0.0331452,-9.7713,390200,-0.00283553,0.0108478,0.0103572
390811,0.0107864,0.0474002,-9.78069,390811,-0.00408026,0.00719729,0.00668668
391411,0.00110978,0.0141805,-9.73306,391411,-0.00586359,0.0071981,0.0109403
392022,0.0201588,-0.0190998,-9.76174,392022,-0.00408508,0.00902177,0.00607731
392633,0.0487448,0.0236106,-9.81422,392633,-0.00585819,0.0084147,0.0115506
393244,0.0628245,0.0568686,-9.79999,393244,-0.00591553,0.00598001,0.00484131
393844,0.0533802,0.0568723,-9.79994,393844,-0.0064755,0.00598139,0.010325
394455,0.0343008,0.0426526,-9.76177,394455,-0.00409083,0.00598052,0.00546661
395066,0.0200456,0.0189175,-9.74267,395066,-0.00468205,0.00476447,0.00729075
395666,0.0437337,0.00939767,-9.75708,395666,-0.00405957,0.00719795,0.00912616
396277,0.0483539,0.0189094,-9.73806,396277,-0.00406406,0.0108471,0.00851729
396888,0.0294728,-8.56277e-05,-9.73797,396888,-0.0022767,0.00476426,0.00487184
397488,0.0625844,-0.0191073,-9.74768,397488,-0.00533028,0.00293838,0.00240614
398100,0.0953961,0.0379148,-9.70497,398100,-0.00409071,0.00658874,0.00546678
398711,0.0812523,0.0426679,-9.70965,398711,-0.00711223,0.0102378,0.00666179
399311,0.0627658,0.0188729,-9.78573,399311,-0.00645941,0.00902297,0.0121554
399922,0.0441926,0.0283415,-9.84751,399922,-0.00346881,0.00598113,0.00730136
400533,0.0393023,0.0188637,-9.81417,400533,-0.00526225,0.00719805,0.0103356
401144,0.00596777,-0.0190911,-9.7569,401144,-0.00589439,0.00841354,0.00728145
401744,0.0154329,-0.0095967,-9.76171,401744,-0.00463448,0.0102399,0.0127811
402355,0.0625676,0.0236482,-9.74765,402355,-0.00404371,0.00902309,0.0109563
402955,0.0436638,-9.43001e-05,-9.74281,402955,-0.00406497,0.00598135,0.00851597
403566,0.0389945,-0.00959983,-9.75231,403566,-0.00348386,0.0084135,0.00547242
404177,0.0721024,-0.0191203,-9.76201,404177,-0.00348386,0.0084135,0.00547242
404777,0.0627638,-0.0381313,-9.78101,404777,-0.0046708,0.00963054,0.00851181
405388,0.0580813,-0.0143826,-9.79049,405388,-0.00409577,0.00719679,0.00485707
406000,0.0675011,-0.0143832,-9.78578,406000,-0.00348375,0.00902172,0.00547258
406611,0.0579888,-0.0286221,-9.77146,406611,-0.00344215,0.0102395,0.0103519
407211,0.0439168,-0.0191276,-9.79042,407211,-0.00409026,0.0090216,0.00546744
407822,0.0155121,-0.0238578,-9.776,407822,-0.004049,0.00841471,0.0103462
408433,0.00589788,-0.0285831,-9.74263,408433,-0.00589462,0.00719711,0.00728112
409033,0.0579133,-0.0238622,-9.75718,409033,-0.00345766,0.010239,0.00852227
409644,0.0767906,0.00463402,-9.75725,409644,-0.00285138,0.00902266,0.00852708
410255,0.0577774,0.00940751,-9.73335,410255,0.00136259,0.00598138,0.00490302
410855,0.0579058,-0.00485976,-9.75716,410855,-0.00347432,0.00415631,0.006691
411466,0.0673482,-0.000112871,-9.75721,411466,-0.00164916,0.00658969,0.00731696
412077,0.0813994,-0.0191055,-9.73349,412077,-0.00403889,0.00719861,0.0115656
412677,0.0671782,-0.00484188,-9.72389,412677,-0.00287758,0.00719718,0.00547723
413288,0.043492,-7.26972e-05,-9.70949,413288,-0.000415457,0.00659058,0.00976673
413900,0.062458,-0.00959063,-9.72387,413900,-0.00103748,0.00658997,0.00793197
414500,0.0673576,-0.0238659,-9.75722,414500,0.000196338,0.00719908,0.0103819
415111,0.0578906,-0.0286097,-9.75242,415111,-0.0010376,0.00598175,0.00793181
415722,0.0673482,-0.000112871,-9.75721,415722,0.000828592,0.00659181,0.0134362
416322,0.0722912,-0.000142511,-9.80007,416322,-0.000441199,0.00719797,0.00671753
416933,0.0582796,-0.0191579,-9.82857,416933,0.00137822,0.0065901,0.0067328
417544,0.0487296,-0.000139372,-9.80947,417544,0.00015451,0.00476488,0.00550228
418144,0.0437582,0.00939458,-9.76184,418144,0.00262157,0.00294202,0.0104013
418755,0.0579001,0.00939208,-9.75715,418755,0.000133825,0.00476422,0.00306279
419366,0.0815317,0.0188809,-9.76203,419366,-0.000420628,0.00659042,0.00915685
419977,0.0484463,-0.028606,-9.75237,419977,0.000169795,0.00354895,0.00733156
420577,0.0531703,-0.0333585,-9.7524,420577,0.00016991,0.00415716,0.00733172
421188,0.0767962,-0.00961782,-9.75726,421188,-0.00165962,0.00598114,0.00609705
421800,0.0814504,-0.0238623,-9.74302,421800,-0.0010484,0.00354855,0.0067114
422400,0.0909003,-0.0381178,-9.74307,422400,0.00139316,0.00354951,0.00856159
423011,0.100492,-0.0381401,-9.77168,423011,0.000756195,0.00658949,0.00489804
423622,0.124201,-0.0381617,-9.79085,423622,0.000201968,0.00963211,0.0109924
424222,0.147604,-0.00964267,-9.75287,424222,0.000175882,0.00841485,0.00794276
424833,0.119316,-0.000136442,-9.76224,424833,0.00262272,0.00902419,0.010403
425444,0.0818167,-0.0191579,-9.81442,425444,0.000144856,0.00841385,0.00428353
426044,0.0580945,-0.0476369,-9.79051,426044,0.00198507,0.00841486,0.00673844
426655,0.00590912,-0.0570867,-9.74265,426655,0.000725625,0.00902136,0.00123948
427266,0.0154196,-0.0380973,-9.75697,427266,0.00261215,0.00780742,0.0091829
427866,0.110004,-0.0239012,-9.786,427866,0.00441594,0.00659083,0.00736838
428477,0.128925,-0.0429142,-9.79087,428477,0.00442122,0.00719922,0.00797842
429088,0.0816051,-0.0428832,-9.77159,429088,0.000771709,0.00658998,0.00672766
429700,0.0863614,-0.00488636,-9.78111,429700,0.00135248,0.00719748,0.00368361
430300,0.0912233,0.0140957,-9.80968,430300,0.00558219,0.00537313,0.0018895
430911,0.062796,0.004618,-9.7905,430911,0.0062149,0.00719873,0.00494449
431511,0.0579586,-0.0143672,-9.76669,431511,0.00382494,0.00659122,0.00919285
432122,0.0768736,-0.0191283,-9.77155,432122,0.00378817,0.00354897,0.00492293
432733,0.0767263,-0.0191098,-9.74299,432733,0.00135731,0.005373,0.00429299
433333,0.0769606,0.00936302,-9.79057,433333,0.00257066,0.00719788,0.00430377
433933,0.0769606,0.00936302,-9.79057,433933,0.00379403,0.00719844,0.0055338
434544,0.0815883,-0.000127716,-9.77156,434544,0.00441122,0.00902353,0.00675917
435155,0.109859,-0.0286333,-9.75745,435155,0.00438525,0.00841449,0.00370966
435755,0.105293,-0.052403,-9.786,435755,0.00440571,0.00719872,0.00614881
436366,0.0864727,-0.038153,-9.80017,436366,0.00375749,0.00537262,0.0012642
436977,0.105157,-0.0191333,-9.76218,436977,0.00262203,0.00537488,0.010402
437577,0.100407,-0.00962713,-9.75739,437577,0.00197978,0.00780648,0.0061284
438188,0.0911855,-0.0144018,-9.80018,438188,0.00205746,0.00841718,0.0152766
438800,0.0580341,-0.019127,-9.78097,438800,0.007988,0.0078058,-0.000528753
439400,0.0531572,-0.000104198,-9.75238,439400,0.00383494,0.0047669,0.0104121
440011,0.0719495,-0.00484991,-9.73344,440011,0.00497556,0.0047648,0.00188419
440622,0.0672556,-0.0143524,-9.73818,440622,0.00260721,0.00902369,0.00857336
441222,0.0627619,-0.0333807,-9.78101,441222,0.00258124,0.00841464,0.00552384
441833,0.0486294,-0.0571313,-9.78571,441833,0.00443168,0.00780776,0.00919833
442444,0.043896,-0.0286258,-9.78567,442444,0.0038308,0.0102407,0.00980372
443044,0.0440376,-0.0143924,-9.81422,443044,0.00440008,0.00476569,0.00553828
443655,0.0582041,-0.014398,-9.81429,443655,0.00318752,0.00719832,0.00552865
444266,0.0486106,-0.00962516,-9.78568,444266,0.00257055,0.00658966,0.0043036
444866,0.0390625,0.00464274,-9.76658,444866,0.000196224,0.00659086,0.0103817
445477,0.0438828,0.00462853,-9.78564,445477,0.00256101,0.0108468,0.00308502
446088,0.0297616,-0.0476257,-9.79037,446088,0.00138867,0.00719864,0.00795271
446688,0.0343156,-0.0571072,-9.75708,446688,0.00253469,0.00841315,3.5001e-05
447300,0.0485634,-0.0143696,-9.77616,447300,-0.00100094,0.00841578,0.0122016
447911,0.0486314,-0.000127027,-9.79043,447911,0.0019537,0.00658922,0.00307872
448511,0.0250055,-0.0238677,-9.78557,448511,0.000180366,0.00476571,0.00855163
449122,-0.00797401,-0.0286145,-9.79968,449122,0.00315063,0.00354786,0.00125856
449733,0.00621323,-0.019122,-9.80451,449733,0.00445271,0.00963308,0.0116383
450344,0.0297199,-0.066622,-9.78086,450344,0.00315684,0.00902198,0.00186992
450944,0.0295764,-0.0761047,-9.7523,450944,0.00321372,0.0090238,0.0085785
451555,0.0295822,-0.0286016,-9.75703,451555,0.00438445,0.00415697,0.0037085
452166,0.0248772,-0.00960042,-9.76176,452166,0.00322349,0.00598305,0.00979742
452766,0.0248017,-0.00484055,-9.74747,452766,0.000756538,0.00841413,0.00489854
453377,0.0153611,-0.0143381,-9.74743,453377,0.00198978,0.00598216,0.00734765
453988,0.0202305,-0.0143584,-9.77602,453988,-0.00168065,0.00415583,0.00365707
454588,0.0534083,-0.0143869,-9.79999,454588,-0.000456598,0.00780569,0.00488809
455200,0.0533403,-0.0286295,-9.78572,455200,-0.0016333,0.00841484,0.00914706
455811,0.0153555,-8.62125e-05,-9.74742,455811,0.00196933,0.00719793,0.0049085
456411,0.0199701,0.0236773,-9.72839,456411,0.00138339,0.00659026,0.00734267
457022,0.0105351,-7.20061e-05,-9.72836,457022,-0.00287275,0.0053727,0.0060866
457633,0.00114369,-0.00957568,-9.73783,457633,-0.000410287,0.00659075,0.0103766
458233,0.0248073,-0.0190924,-9.74748,458233,-0.000498196,0.00658793,8.79169e-06
458844,0.0105917,-0.0190806,-9.73789,458844,0.000776993,0.00719837,0.00733769
459455,0.0531119,-0.00959925,-9.74286,459455,-0.00412714,0.00537114,0.00119735
460055,0.0530892,-0.0143468,-9.7381,460055,-0.000410402,0.00598253,0.0103764
460666,-0.00836863,-0.0238145,-9.72351,460666,-0.00108345,0.00962956,0.00244396
461277,-0.00837988,0.00468914,-9.72349,461277,0.00023851,0.0114579,0.015262
461888,-0.00375591,0.00469963,-9.70448,461888,-0.000461997,0.00658909,0.00427789
462488,0.00584504,-0.0190757,-9.7331,462488,-0.00225624,0.00354849,0.00731099
463100,0.0342422,0.00465695,-9.74751,463100,-0.0022867,0.00658858,0.00365259
463700,0.0247035,-0.0048282,-9.72843,463700,-0.00163825,0.00963111,0.00853753
464311,0.0389284,-0.028593,-9.73804,464311,-0.000456369,0.00902212,0.00488842
464922,0.0390813,-0.0428634,-9.76661,464922,-0.00104794,0.00598142,0.00671206
465522,0.0249129,-0.0381072,-9.76653,465522,-0.00345835,0.00658968,0.00852128
466133,0.0155102,-0.0191072,-9.77599,466133,-0.00226084,0.00658941,0.00670194
466744,0.0203476,-0.000122026,-9.79981,466744,-0.00104794,0.00598142,0.00671206
467355,0.0674389,0.0188772,-9.77624,467355,-0.00287241,0.00719735,0.00608709
467955,0.0580191,0.0188779,-9.78095,467955,0.000186112,0.00780696,0.00916233
468566,0.0109298,-0.004872,-9.80452,468566,-0.00404326,0.011456,0.0109569
469177,0.062828,-0.0143875,-9.79527,469177,-0.00160779,0.00659102,0.0121959
469777,0.0910665,-0.0238876,-9.77639,469777,-0.00650641,0.00658861,0.00666594
470388,0.0437826,-0.0523634,-9.76188,470388,-0.00228739,0.00293928,0.0036516
471000,0.0484425,-0.0191048,-9.75236,471000,-0.00409588,0.00658857,0.0048569
471600,0.0342875,0.014152,-9.75703,471600,-0.00650113,0.00719699,0.00727598
472211,0.0532346,-0.00961468,-9.76666,472211,-0.00409048,0.00780517,0.00546711
472822,0.0863708,-0.0286394,-9.78113,472822,-0.00707592,0.0108472,0.0109311
473433,0.0627714,0.00462108,-9.78574,473433,-0.00286666,0.0102386,0.00669779
474033,0.0485257,0.0188878,-9.77138,474033,-0.00526753,0.00658967,0.00972559
474644,0.081592,-0.00962894,-9.77157,474644,-0.00346812,0.00963043,0.00730235
475244,0.0910344,-0.00488205,-9.77161,475244,-0.00649561,0.00902181,0.00788635
475855,0.0625543,-0.00485236,-9.74291,475855,-0.00345249,0.0102391,0.00913213
476466,0.0577433,-0.0285912,-9.72386,476466,-0.00650101,0.00780521,0.00727615
477077,0.0578151,-0.0238499,-9.73814,477077,-0.00285667,0.00841428,0.00791704
477677,0.0578793,-0.000106061,-9.7524,477677,-0.00528765,0.00963009,0.00728693
478288,0.053044,0.037913,-9.73331,478288,-0.0046662,0.00658962,0.00912086
478900,0.0294974,-8.87141e-05,-9.74273,478900,-0.00534005,0.00597913,0.00118723
479500,0.0251168,-0.0571343,-9.80463,479500,-0.0058745,0.00415668,0.00971978
480111,0.0439998,-0.0428899,-9.80472,480111,-0.00474376,0.00658713,-2.72077e-05
480722,0.0722062,-0.0333844,-9.78105,480722,-0.00767243,0.00902274,0.0121452
481322,0.0862216,-0.0238703,-9.75256,481322,-0.00531385,0.00780461,0.00423708
481933,0.0673236,-0.000109784,-9.75245,481933,-0.00586853,0.00841437,0.0103308
482544,0.0768453,-0.00962399,-9.76678,482544,-0.00227578,0.00963,0.00487316
483144,0.067384,-0.0286196,-9.76199,483144,-0.00582705,0.00902391,0.0152099
483755,0.0627752,-0.00488014,-9.78575,483755,-0.00288735,0.0102379,0.00425831
484366,0.0532951,0.0236303,-9.78092,484366,-0.00707121,0.00841447,0.0115403
484966,0.0484785,0.0141433,-9.76186,484966,-0.00409588,0.00658857,0.0048569
485577,0.0910873,-0.0143894,-9.78114,485577,-0.00345904,0.00294038,0.00852028
486188,0.0768982,-0.0191314,-9.77631,486188,-0.00288804,0.00658863,0.00425732
486788,0.0816486,-0.0286376,-9.7811,486788,-0.00407463,0.00963032,0.00729721
487400,0.133711,-0.0191723,-9.80516,487400,-0.00524685,0.00659033,0.0121651
488011,0.110093,-0.000160495,-9.80503,488011,-0.00346812,0.00963043,0.00730235
488611,0.100707,-0.023916,-9.81452,488611,-0.00528225,0.0108467,0.00789713
489222,0.119549,-0.0286679,-9.8051,489222,-0.00591507,0.00841288,0.00484197
489833,0.119492,-0.00965927,-9.79556,489833,-0.00771437,0.00598033,0.00726536
490444,0.0768907,-0.000128942,-9.7763,490444,-0.00529868,0.00598046,0.00606619
491044,0.0909496,0.0236309,-9.75732,491044,-0.00342135,0.0108484,0.0127915
491655,0.095768,0.0283673,-9.77638,491655,-0.00044097,0.0084144,0.00671787
492266,0.0484465,0.0331489,-9.75709,492266,-0.0022189,0.00963182,0.0115817
492866,0.0578889,0.0378958,-9.75714,492866,-0.0058883,0.0132794,0.00789265
493477,0.072144,-0.000123993,-9.77151,493477,-0.00587324,0.0108471,0.0097216
494088,0.0766943,-0.00010425,-9.73822,494088,-0.00591507,0.00841288,0.00484197
494688,0.0813844,0.0188994,-9.73347,494688,-0.00526708,0.00902254,0.00972625
495300,0.0815637,-0.000124631,-9.7668,495300,-0.00408451,0.0120629,0.00607813
495911,0.128891,-0.019158,-9.7861,495911,-0.00224487,0.00902277,0.00853222
496511,0.138413,-0.0286723,-9.80043,496511,-0.00165893,0.00963044,0.00609804
497122,0.0958244,-0.0523962,-9.78119,497122,-0.0022551,0.00963066,0.00731264
497733,0.076732,-0.0333616,-9.743,497733,-0.00285173,0.00719801,0.00852658
498333,0.0719098,-0.0285968,-9.72393,498333,-0.00166525,0.00354811,0.00548652
498944,0.0767376,-0.0476135,-9.74301,498944,-0.00346869,0.00658935,0.00730153
499555,0.0957811,-0.004887,-9.7764,499555,-0.00468608,0.0108465,0.00668253
500155,0.0957982,0.0141124,-9.78115,500155,-0.00164353,0.00902272,0.00792749
500755,0.057917,-0.0333634,-9.75718,500755,-0.00105311,0.00598126,0.00610219
501366,0.0720739,-0.0713708,-9.75252,501366,0.00137282,0.00537349,0.0061226
501977,0.0957659,-0.028637,-9.77165,501977,0.00012877,0.00537227,0.00245309
502577,0.0626562,-0.0143659,-9.76195,502577,0.000756424,0.00780592,0.00489837
503188,0.0675123,-0.0428869,-9.7858,503188,-0.00228636,0.00841323,0.00365308
503800,0.0817903,-0.0144042,-9.80965,503800,-0.000446485,0.00658959,0.0061075
504400,0.0675729,-0.00964187,-9.80006,504400,-0.000482911,0.00537199,0.00183807
505011,0.0676465,-0.00965113,-9.81434,505011,0.00133708,0.0078052,0.00185416
505622,0.0817147,-0.00964437,-9.79537,505622,0.00134742,0.00780553,0.0030739
506222,0.0814372,0.00939202,-9.74299,506222,0.000808366,0.00902401,0.0109974
506833,0.0814901,-0.000115372,-9.75252,506833,0.000756195,0.00658949,0.00489804
507444,0.0864633,-0.0143999,-9.80016,507444,0.000180481,0.00537393,0.0085518
508055,0.0581154,0.0236161,-9.79999,508055,0.000176111,0.00963128,0.00794308
508655,0.0674634,0.0188741,-9.781,508655,0.00138879,0.00780686,0.00795287
509266,0.0627714,0.00462108,-9.78574,509266,0.00200047,0.00780714,0.00856789
509866,0.0721685,-0.000127079,-9.77627,509866,0.00198518,0.00902308,0.0067386
510477,0.0864652,-0.0191505,-9.80016,510477,0.00260675,0.00659082,0.0085727
511088,0.0912044,-0.000153046,-9.80493,511088,0.00135225,0.00598105,0.00368328
511700,0.105292,0.0141025,-9.79072,511700,0.00378323,0.00476524,0.00431339
512300,0.0721232,-0.00962213,-9.76676,512300,0.00196875,0.00415684,0.00490767
512911,0.0531572,-0.000104198,-9.75238,512911,0.0031774,0.00841442,0.00430924
513522,0.0675011,-0.0143832,-9.78578,513522,0.00316189,0.00841393,0.00247963
514122,0.0864708,-0.0334024,-9.80017,514122,0.00196967,0.00902258,0.00490899
514733,0.0674992,-0.00963261,-9.78578,514733,0.00379437,0.00902309,0.00553429
515344,0.053293,-0.0333739,-9.7762,515344,0.00437457,0.00658951,0.00248942
515944,0.0722195,-0.00488386,-9.7858,515944,0.00503279,0.00659128,0.00859327
516555,0.0768549,0.0283778,-9.77152,516555,0.0055977,0.00537363,0.00371911
517166,0.0579359,-0.0191147,-9.76193,517166,0.00379437,0.00902309,0.00553429
517766,0.0626807,-0.014369,-9.76671,517766,0.00258135,0.00902286,0.00552401
518377,0.0908607,-0.000109838,-9.73829,518377,0.00563459,0.00902409,0.0079892
518988,0.0860367,0.00940559,-9.71922,518988,0.00499176,0.0084146,0.0037148
519588,0.0955471,0.0283951,-9.73354,519588,0.00745354,0.00598335,0.00800381
520200,0.114577,-0.0191339,-9.75746,520200,0.00379851,0.0035493,0.00614267
520811,0.0768509,-0.0238758,-9.76679,520811,0.00626064,0.0029427,0.0104322
521411,0.0533837,-0.0143838,-9.79523,521411,0.00499579,0.0023326,0.00432302
522022,0.0676276,-0.0238999,-9.80959,522022,0.00624558,0.00537507,0.00860323
522633,0.0863387,-0.00963389,-9.77635,522633,0.00620398,0.00415731,0.00372393
523233,0.0532648,-0.0238696,-9.77143,523233,0.00620927,0.0047657,0.00433396
523844,0.0625976,-0.0523616,-9.7477,523844,0.00437951,0.00537324,0.00309896
524455,0.0624711,-0.0428449,-9.72389,524455,0.00319292,0.00841492,0.00613885
525066,0.0578698,-0.0381079,-9.74766,525066,0.00623087,0.00963209,0.00677477
525666,0.0956432,-0.0286215,-9.74785,525666,0.00744803,0.00415853,0.00739344
526277,0.0720495,-0.00961287,-9.75248,526277,0.00625029,0.00294237,0.00921243
526888,0.0533421,-0.0333801,-9.78572,526888,0.00620927,0.0047657,0.00433396
527488,0.067586,-0.0428962,-9.80008,527488,0.00742275,0.00719879,0.00434491
528100,0.067654,-0.0286536,-9.81435,528100,0.00682129,0.00659063,0.00494947
528711,0.0346179,-0.0143918,-9.81893,528711,0.00379851,0.0035493,0.00614267
529311,0.0391588,0.00938101,-9.78562,529311,0.00619364,0.00415698,0.00250418
529922,0.0864086,-0.000141924,-9.79063,529922,0.00743286,0.00598269,0.00556432
530533,0.0675747,-0.0143925,-9.80006,530533,0.00500762,0.0102398,0.00554491
531133,0.0392362,-0.000129474,-9.7999,531133,0.00566033,0.0084167,0.0110384
531744,0.0438319,0.00938532,-9.77612,531744,0.00563344,0.00294192,0.00798755
532355,0.0296012,-0.0143529,-9.76178,532355,0.00684658,0.00355037,0.007998
532966,0.0154762,-0.0571059,-9.7665,532966,0.00739609,0.00294044,0.0012944
533566,0.0296388,-0.0476103,-9.76656,533566,0.00561873,0.00719895,0.00615909
534177,0.0392456,-0.0238825,-9.79992,534177,0.00497568,0.00537302,0.00188436
534777,0.0439544,-0.052385,-9.7952,534777,0.00256458,0.00233197,0.00369257
535388,0.0626882,-0.0333715,-9.76673,535388,0.00555644,0.00598052,-0.00115969
536000,0.0486899,-0.0238863,-9.79997,536000,0.00262766,0.00780792,0.0110125
536600,0.024962,-0.0381134,-9.77605,536600,0.00376817,0.00719761,0.00248444
537211,0.0295427,0.00940634,-9.75225,537211,0.00563401,0.00598301,0.00798838
537822,0.0534102,-0.0191375,-9.79999,537822,0.0079972,0.00172396,0.000689337
538433,0.0816126,-0.0618857,-9.7716,538433,0.00261755,0.00902402,0.0097931
539033,0.0814957,-0.0143672,-9.75253,539033,0.00140499,0.0114567,0.00978348
539644,0.0768642,0.00462476,-9.77153,539644,0.00263835,0.0096329,0.0122327
540255,0.0486597,-0.00963134,-9.7952,540255,0.00140913,0.00598287,0.0103919
540855,0.0533912,-0.0333863,-9.79524,540855,0.00136225,0.00415673,0.00490252
541466,0.0485879,-0.0143727,-9.78092,541466,0.00200001,0.00537427,0.00856723
542077,-0.00332156,0.0236465,-9.79015,542077,0.00257606,0.00841448,0.00491397
542677,0.0202759,-0.00486338,-9.78553,542677,-0.000414886,0.00963167,0.00976756
543288,0.0674104,-0.0333733,-9.76675,543288,-0.00171064,0.00962878,-6.66827e-07
543900,0.057885,-0.0143579,-9.75241,543900,0.000786992,0.00537404,0.00855694
544500,0.0532573,-0.00486716,-9.77142,544500,0.000714023,0.00233064,1.79186e-05
545111,0.072125,-0.0143727,-9.76676,545111,-0.00101174,0.00598258,0.0109812
545722,0.0578396,-0.0238529,-9.74289,545722,0.00195381,0.00719743,0.00307888
546322,0.053161,-0.00960542,-9.75238,546322,-0.000404656,0.00902378,0.0109871
546933,0.0436657,-0.00484491,-9.74281,546933,-0.0035304,0.00841201,-1.64267e-05
547544,0.0483745,-0.0333474,-9.73809,547544,-0.00283644,0.00598207,0.0103559
548144,0.034363,0.00939213,-9.77131,548144,-0.0023075,0.0059797,0.00121294
548755,0.0343745,0.0426433,-9.77605,548755,-0.00166444,0.00780562,0.00548768
549366,0.0816147,-0.00488142,-9.77633,549366,-0.00231727,0.00902045,-5.97537e-06
549977,0.0673783,-0.0143678,-9.76198,549977,-0.00283047,0.0102398,0.0109669
550577,0.0483841,0.00465445,-9.74283,550577,-0.00470262,0.00537202,0.00485143
551188,0.0342441,-9.36631e-05,-9.74752,551188,-0.00346352,0.00658951,0.0079114
551800,-0.0130567,0.0141861,-9.73298,551800,-0.00706064,0.00963124,0.0127603
552400,0.010624,0.0236687,-9.74738,552400,-0.00527708,0.0108469,0.008507
553011,0.0391532,0.0236328,-9.78561,553011,-0.00771346,0.0108461,0.00726669
553622,0.0296617,0.0188921,-9.77604,553622,-0.00530305,0.0102378,0.00545748
554222,0.0577246,0.0189149,-9.72383,554222,-0.00586899,0.0059815,0.0103301
554833,0.0624996,0.00940565,-9.73338,554833,-0.00532522,0.00233032,0.00301585
555444,0.0390663,-0.00485848,-9.76659,555444,-0.00831571,0.00598038,0.00787009
556044,0.0202418,-0.0428621,-9.77603,556044,-0.00712786,0.00962908,0.00483202
556655,0.0344837,-0.0476276,-9.79039,556655,-0.0076668,0.0114558,0.0127557
557266,0.0438639,-0.00962021,-9.78089,557266,-0.00893728,0.00841264,0.006036
557866,0.0578585,-0.0096042,-9.74765,557866,-0.0052665,0.0120636,0.00972708
558477,0.0906964,-0.0190907,-9.70498,558477,-0.00832985,0.0132785,0.00604246
559088,0.0766207,-9.49912e-05,-9.72394,559088,-0.0058629,0.0108474,0.0109413
559688,0.0862349,0.00463029,-9.7573,559688,-0.00893211,0.0084128,0.00664587
560300,0.0957264,0.00937101,-9.76687,560300,-0.00770863,0.00902158,0.00787607
560911,0.0721157,0.00938032,-9.76675,560911,-0.00956482,0.00658721,0.00359088
561511,0.0579756,0.00463221,-9.77144,561511,-0.00646435,0.0102392,0.0115459
562122,0.0579869,-0.0238715,-9.77146,562122,-0.00891568,0.013279,0.00847681
562733,0.0579661,-0.0333696,-9.7667,562733,-0.00709189,0.00841381,0.00910078
563333,0.0626978,0.00463034,-9.77146,563333,-0.00713315,0.0090207,0.00422198
563944,0.0485938,0.0331303,-9.78565,563944,-0.00647998,0.00963052,0.00971613
564555,0.0533178,0.0283779,-9.78568,564555,-0.00708649,0.00963041,0.00971099
565155,0.0769662,-0.00488881,-9.79058,565155,-0.00889062,0.00902235,0.011525
565766,0.0818148,-0.0144073,-9.81441,565766,-0.00708212,0.00537306,0.0103197
566377,0.0533234,0.014126,-9.78569,566377,-0.0064855,0.00780571,0.00910576
566966,0.0106352,-0.00483496,-9.7474,566966,-0.00888017,0.0096309,0.0127449
567577,-0.0129926,-0.023825,-9.74253,567577,-0.00891648,0.00902152,0.00847565
568188,0.0154782,-0.000101645,-9.77122,568188,-0.00888051,0.00780625,0.0127444
568800,0.0723668,-0.00490238,-9.81436,568800,-0.00595713,0.00476225,-3.79886e-05
569400,0.081762,-0.00489993,-9.80489,569400,-0.00767243,0.00902274,0.0121452
570011,0.053329,-0.000125803,-9.7857,570011,-0.0101817,0.00658677,0.00236599
570622,0.0439168,-0.0191276,-9.79042,570622,-0.00766243,0.00719842,0.0133644
571222,0.0533346,-0.0143776,-9.78571,571222,-0.00717498,0.00658651,-0.000657652
571833,0.0815128,0.00463215,-9.75728,571833,-0.00522617,0.006591,0.0146046
572444,0.0719628,0.0236507,-9.73818,572444,-0.00721117,0.00658535,-0.00492675
573044,0.0390361,0.00939644,-9.76182,573044,-0.0040228,0.0102402,0.0133961
573655,0.0721496,-0.0143758,-9.77152,573655,-0.00592496,0.0108454,0.00362289
574266,0.0625826,-0.0143567,-9.74767,574266,-0.00402797,0.01024,0.0127862
574866,0.0295729,-0.00484858,-9.75702,574866,-0.00651652,0.00780471,0.00544654
575477,0.062677,-0.00486779,-9.76671,575477,-0.00707167,0.00598161,0.0115396
576088,0.0767151,0.00939389,-9.74297,576088,-0.00531476,0.00293887,0.00423576
576700,0.0436393,-9.12156e-05,-9.73805,576700,-0.00529856,0.00658868,0.00606636
577300,0.0437922,-0.0143616,-9.76662,577300,-0.0064955,0.00963003,0.00788652
577911,0.0531062,0.00465259,-9.74285,577911,-0.00464965,0.0120641,0.010952
578511,0.0482915,-0.00958504,-9.7238,578511,-0.00342124,0.0114566,0.0127917
579122,0.0626391,-0.0333653,-9.75721,579122,-0.00651675,0.00658828,0.0054462
579733,0.100411,-0.0191284,-9.75739,579733,-0.00402786,0.0108482,0.0127864
580344,0.0815165,-0.00486907,-9.75729,580344,-0.00355649,0.00719475,-0.00306611
580944,0.0579925,-0.0381233,-9.77147,580944,0.000186225,0.00841518,0.00916249
581555,0.0533232,-0.0476288,-9.78097,581555,-0.00473859,0.0065873,0.000582663
582166,0.053395,-0.0428875,-9.79524,582166,-0.00219844,0.00841605,0.0140209
582766,0.067586,-0.0428962,-9.80008,582766,-0.00292389,0.00841212,-1.12839e-05
583377,0.0771399,-0.00966103,-9.82391,583377,-0.000980597,0.0065918,0.0146405
583988,0.067437,0.0236278,-9.77623,583988,-0.000488199,0.00476361,0.00122804
584588,0.0673482,-0.000112871,-9.75721,584588,-0.00278416,0.00902482,0.0164554
585200,0.0628753,-0.0096431,-9.80479,585200,-0.00106759,0.0114547,0.00427407
585811,0.053312,-0.0191252,-9.78095,585811,0.000191167,0.00719891,0.00977204
586411,0.0767263,-0.0191098,-9.74299,586411,0.00310444,0.00537102,-0.00422978
587022,0.0862557,0.0141284,-9.76206,587022,0.00139373,0.00659059,0.00856241
587633,0.0673652,0.0188865,-9.76196,587633,0.000140142,0.0108466,0.00367432
588233,0.0579908,0.0283822,-9.77618,588233,-0.00044097,0.0084144,0.00671787
588844,0.076936,0.00936611,-9.78581,588844,-0.000461768,0.00780552,0.00427822
589455,0.0862952,-0.0238796,-9.76684,589455,0.00136799,0.00719798,0.00551323
590066,0.100543,-0.0428968,-9.78121,590066,0.00255998,0.00537289,0.00308353
590666,0.109968,0.00460555,-9.78123,590666,0.00377806,0.00476507,0.00370352
591277,0.0816941,0.0426124,-9.79533,591277,0.00383505,0.00537511,0.0104123
591888,0.0439111,-0.00487578,-9.79041,591888,0.0037784,0.00658972,0.00370402
592488,0.0484783,-0.0476115,-9.75714,592488,0.00321337,0.00719915,0.00857801
593100,0.0485047,-0.0523652,-9.76191,593100,0.00376794,0.00598117,0.00248411
593700,0.0769075,-0.0428844,-9.77633,593700,0.00505336,0.00598372,0.0110326
594311,0.100579,-0.00964873,-9.79071,594311,0.00497073,0.00658929,0.00127482
594922,0.0863256,0.0236204,-9.77633,594922,0.00444236,0.00963275,0.0104186
595533,0.0862709,0.0378784,-9.7668,595533,0.00316178,0.00780571,0.00247946
596133,0.0864558,0.00460252,-9.80014,596133,0.00504313,0.00659161,0.00981301
596744,0.0627261,-0.00487397,-9.77623,596744,0.00556196,0.00780534,-0.000549324
597344,0.0532271,0.00938777,-9.76665,597344,0.00749089,0.0120667,0.0122746
597955,0.0625996,0.00464269,-9.75242,597955,0.00253998,0.00902153,0.000645038
598566,0.0529835,0.00466802,-9.71905,598566,0.00504256,0.00355052,0.00981219
599177,0.0482896,-0.00483443,-9.72379,599177,0.00373669,0.00476375,-0.00117545
599777,0.0436505,-0.0285949,-9.73807,599777,0.00441008,0.00294136,0.00675752
600388,0.0248713,-0.0571035,-9.75703,600388,0.00862014,0.00659031,0.00252542
601000,0.0437316,-0.0476066,-9.75236,601000,0.00809177,0.00963376,0.0116692
601600,0.0813994,-0.0191055,-9.73349,601600,0.00625707,0.0114576,0.00982462
602211,0.0721325,-0.0333752,-9.76677,602211,0.00330703,0.0102432,0.0195565
602822,0.0628769,-0.0761486,-9.80007,602822,0.00681072,0.00537386,0.0037294
603422,0.0580926,-0.0428863,-9.79051,603422,0.00625569,0.00415897,0.00982264
604033,0.062594,0.0188945,-9.75241,604033,0.00862531,0.00659047,0.00313529
604644,0.048335,0.00466062,-9.73331,604644,0.00497062,0.00598107,0.00127465
605244,0.0720666,0.00938649,-9.75723,605244,0.00378369,0.00719811,0.00431405
605855,0.0956472,0.0236321,-9.75258,605855,0.00261146,0.00415812,0.00918191
606466,0.0625694,0.0188976,-9.74765,606466,0.00744286,0.00415837,0.00678357
607066,0.0342875,0.014152,-9.75703,607066,0.00497051,0.00537285,0.00127449
607677,0.0153592,-0.00958744,-9.74743,607677,0.00507473,0.00963369,0.0134731
608288,0.0625636,-0.0286054,-9.74292,608288,0.00557184,0.0053728,0.000669759
608900,0.0579397,-0.0286159,-9.76194,608900,0.00687818,0.00659245,0.0116581
609500,0.0296937,-0.000113403,-9.78081,609500,0.00799846,0.00841434,0.000691157
610111,0.0153725,0.0189131,-9.75217,610111,0.00570664,0.00720176,0.0165269
610711,0.0200891,0.0331631,-9.75218,610711,0.00554093,0.00598002,-0.0029893
611322,0.0579076,-0.00961037,-9.75717,611322,0.00204655,0.00537576,0.0140561
611933,0.0483708,-0.0238461,-9.73809,611933,0.00493396,0.00354704,-0.00299511
612544,0.0153838,-0.00959052,-9.75219,612544,0.00449373,0.00780975,0.0165168
613144,0.0485255,-0.0428671,-9.76666,613144,0.00499199,0.00963104,0.00371513
613755,0.0672594,-0.0238536,-9.73818,613755,0.00324969,0.00780853,0.0128473
614366,0.0625844,-0.0191073,-9.74768,614366,0.00315189,0.0102382,0.00126038
614966,0.0674765,-0.0143801,-9.78102,614966,0.00504382,0.0102409,0.00981401
615577,0.0911137,-0.0191431,-9.7859,615577,0.00374714,0.00537229,4.44595e-05
616188,0.0675577,-0.0333918,-9.79531,616188,0.00501705,0.00537435,0.00676333
616788,0.0343572,-0.0381109,-9.76658,616788,0.00378943,0.0102394,0.00492475
617400,0.0484424,-0.0808597,-9.74764,617400,0.00319843,0.0102397,0.00674922
618011,0.0391397,-0.0666226,-9.77615,618011,0.00198507,0.00841486,0.00673844
618611,0.0202663,-0.0428652,-9.78079,618611,0.000786876,0.00476583,0.00855678
619222,0.0107636,-0.0191022,-9.77121,619222,0.00136719,0.00294046,0.00551207
619833,0.0343139,0.0093983,-9.76179,619833,0.00435354,0.00476419,4.94365e-05
620433,0.0531401,-0.0191036,-9.74763,620433,0.00197955,0.00659004,0.00612807
621044,0.0153913,-0.028593,-9.7522,621044,-0.00168996,0.00962945,0.00243882
621655,0.015633,-0.0191226,-9.79979,621655,0.00262721,0.00537505,0.0110119
622255,0.0628091,-0.0286363,-9.79052,622255,0.000714481,0.00476351,1.85817e-05
622866,0.0577943,-0.033348,-9.73338,622866,0.000839163,0.00780857,0.0146563
623477,0.0436751,-0.028598,-9.74282,623477,7.76295e-05,0.0084117,-0.00364479
624088,0.0578188,-0.0333511,-9.73814,624088,0.00263858,0.0108493,0.0122331
624688,0.0766847,-0.0381061,-9.73348,624688,-0.00107265,0.0120628,0.00366436
625300,0.0437847,0.00464088,-9.7666,625300,-0.000399485,0.00902395,0.011597
625911,0.0107411,0.0379051,-9.77117,625911,-0.0011355,0.00780325,-0.00365525
626511,0.0343366,0.0141458,-9.76655,626511,0.000186913,0.0120645,0.00916349
627122,0.0343177,-0.00010292,-9.7618,627122,-0.000451084,0.00963051,0.00549846
627733,0.058104,-0.00963506,-9.79525,627733,-0.0022197,0.0053743,0.0115806
628333,0.100541,-0.0381462,-9.7812,628333,-0.00410117,0.00598019,0.00424687
628944,0.0578188,-0.0333511,-9.73814,628944,-0.0022089,0.0078075,0.012801
629555,0.0153251,-0.0475862,-9.73793,629555,-0.00167582,0.00233134,0.00426645
630166,0.0483103,-0.0570912,-9.72383,630166,-0.0040598,0.00598151,0.00912583
630766,0.0717267,-7.15256e-05,-9.69059,630766,-0.0034734,0.00902205,0.00669232
631377,0.0245789,-6.21602e-05,-9.70463,631377,-0.00345812,0.00780611,0.0085216
631977,-0.00352187,-0.0285824,-9.74734,631977,-0.00164376,0.00780629,0.00792716
632588,0.00130032,-0.0333473,-9.76641,632588,-0.00469768,0.00415575,0.00546097
633200,-0.00336897,-0.0428528,-9.77591,633200,-0.00405946,0.00780616,0.00912633
633811,0.0153497,-0.0475892,-9.74269,633811,-0.00408003,0.00841372,0.00668701
634411,0.0483783,-0.0428486,-9.7381,634411,-0.00282564,0.00841527,0.0115763
635022,0.0532439,-0.0333677,-9.76668,635022,-0.00532385,0.00962893,0.00301783
635633,0.0344119,-0.0523689,-9.77611,635633,-0.00406452,0.00841421,0.00851663
636233,0.067586,-0.0428962,-9.80008,636233,-0.00655812,0.00658695,0.000567235
636844,0.0580549,-0.00962889,-9.78573,636844,-0.00645481,0.00598205,0.0127645
637455,0.0342705,-0.00484736,-9.75228,637455,-0.00470194,0.00902132,0.00485242
638055,0.0673274,-0.00961101,-9.75245,638055,-0.0046092,0.00719966,0.0158296
638666,0.0863368,-0.00488328,-9.77635,638666,-0.00469102,0.0120627,0.00607299
639277,0.067639,0.00935132,-9.81432,639277,-0.00649101,0.00598089,0.0084954
639877,0.0344575,0.018881,-9.79035,639877,-0.00535096,0.00293771,-3.33413e-05
640488,0.0532874,-0.0191221,-9.77619,640488,-0.00767783,0.00780614,0.011535
641100,0.0627392,-0.0381282,-9.77625,641100,-0.00529902,0.00415581,0.0060657
641700,0.0388963,-0.00958749,-9.73327,641700,-0.00585876,0.00537362,0.0115497
642311,0.0342403,0.00940756,-9.74751,642311,-0.00528879,0.00354792,0.00728527
642922,0.0484294,0.0141495,-9.75234,642922,-0.00469217,0.00598057,0.00607133
643522,0.0530723,0.0284087,-9.73808,643522,-0.0040906,0.00719695,0.00546694
644133,0.0626639,0.0283865,-9.76669,644133,-0.00529845,0.00719689,0.00606652
644744,0.0816203,-0.0191332,-9.77633,644744,-0.00586819,0.010239,0.0103313
645344,0.0910779,0.00936361,-9.78112,645344,-0.00590438,0.0102379,0.00606221
645955,0.0627074,0.0426322,-9.7762,645955,-0.00648515,0.00963036,0.00910625
646566,0.0439432,-0.0238813,-9.79518,646566,-0.0040698,0.00780583,0.00790659
647166,0.0344554,-0.0381233,-9.78562,647166,-0.00404946,0.00598184,0.0103456
647777,0.0201041,-0.00484177,-9.75221,647777,-0.00652629,0.0108455,0.00422762
648388,0.0579642,-0.028619,-9.7667,648388,-0.00646918,0.0120637,0.0109365
648988,0.0910721,-0.0381394,-9.7764,648988,-0.00835134,0.00902031,0.00360182
649600,0.0864161,-0.0191444,-9.79064,649600,-0.00646964,0.00963086,0.0109359
650211,0.0768736,-0.0191283,-9.77155,650211,-0.00533947,0.00902021,0.00118805
650811,0.0673802,-0.0191184,-9.76198,650811,-0.00647033,0.00598155,0.0109349
651422,0.0767981,-0.0143684,-9.75727,651422,-0.0065479,0.00597907,0.00178681
652033,0.100471,0.0141167,-9.77165,652033,-0.00704489,0.0108482,0.0145903
652644,0.0815317,0.0188809,-9.76203,652644,-0.00712269,0.00962925,0.00544189
653244,0.0483294,0.0189125,-9.7333,653244,-0.00525225,0.00537373,0.0115549
653855,0.0389304,0.0284112,-9.74276,653855,-0.00591553,0.00598001,0.00484131
654466,0.0673482,-0.000112871,-9.75721,654466,-0.00466597,0.00780605,0.00912119
655066,0.0815731,-0.0238777,-9.76682,655066,-0.00712798,0.00902087,0.00483185
655677,0.0720136,-0.042861,-9.74298,655677,-0.00346812,0.00963043,0.00730235
656288,0.067316,-0.0428622,-9.74772,656288,-0.00221924,0.00780717,0.0115812
656888,0.0581606,-0.0286437,-9.80478,656888,-0.00344789,0.00719823,0.00974118
657500,0.0487069,-0.0048869,-9.80472,657500,-0.00404934,0.00659006,0.0103457
658111,0.0391172,-0.00961527,-9.77611,658111,-0.00527236,0.00841415,0.00911621
658711,0.0673444,0.00938835,-9.7572,658711,-0.00161825,0.00598247,0.010976
659322,0.0862538,0.018879,-9.76205,659322,-0.00533465,0.00719573,0.00179743
659933,0.0628809,-0.0238949,-9.8048,659933,-0.00282564,0.00841527,0.0115763
660533,0.053563,-0.0334079,-9.82856,660533,-0.00229693,0.00719647,0.00243301
661144,0.0487371,-0.0191418,-9.80949,661144,-0.00467643,0.0071975,0.00790128
661755,0.0436713,-0.0190967,-9.74282,661755,-0.00473377,0.00476281,0.00119204
662366,0.0436694,-0.0143461,-9.74282,662366,-0.000384087,0.00841623,0.0134264
662966,0.0298183,-0.00487945,-9.80462,662966,-0.00171087,0.00841235,-9.98378e-07
663577,0.029622,-0.00485476,-9.76654,663577,-0.00222476,0.00598235,0.0109709
664188,0.0813805,-0.0333542,-9.72874,664188,0.000123827,0.00658854,0.00184355
664788,0.0909985,-0.0381302,-9.76212,664788,-0.000389259,0.00841606,0.0128166
665400,0.0626656,-0.038119,-9.76197,665400,0.000109231,0.0114538,1.52569e-05
666011,0.0720437,-0.0571159,-9.74775,666011,-0.00103151,0.0108477,0.008543
666611,0.0957942,-0.0381413,-9.77642,666611,-0.00108345,0.00962956,0.00244396
667222,0.081575,-0.0286283,-9.76682,667222,-0.0016541,0.00780596,0.00670742
667833,0.0673632,-0.0381178,-9.75723,667833,-0.00166479,0.00598097,0.00548718
668433,0.0438847,-0.000122078,-9.78565,668433,0.000149339,0.00476472,0.00489241
669044,0.0343385,0.00939522,-9.76655,669044,-0.00230313,0.00172235,0.00182165
669655,0.0484009,-0.0381011,-9.74286,669655,-0.000467286,0.00598071,0.00366785
670255,0.0674614,-0.0381301,-9.77627,670255,0.00138316,0.00537383,0.00734234
670866,0.0769982,-0.0238943,-9.79535,670866,0.00314029,0.00354753,3.88213e-05
671477,0.0628921,-0.0523986,-9.80482,671477,0.00383023,0.0071996,0.00980289
672077,0.105274,-0.0666518,-9.78125,672077,0.00257147,0.0114554,0.00430493
672688,0.109857,-0.0238827,-9.75744,672688,0.00145096,0.00841707,0.0152715
673300,0.10501,-0.0191148,-9.73361,673300,0.00253424,0.00598028,3.43397e-05
673900,0.114511,-0.0381271,-9.7432,673900,0.00203092,0.00476705,0.0122263
674511,0.0720344,-0.0333628,-9.74773,674511,0.00255021,0.00841365,0.00186461
675122,0.0342422,0.00465695,-9.74751,675122,0.00384068,0.00780815,0.0110228
675722,0.0484521,0.018897,-9.7571,675722,0.00318717,0.00537367,0.00552816
676333,0.0673992,-0.00486965,-9.76673,676333,0.00441571,0.0053744,0.00736805
676944,0.0815277,-0.0333727,-9.7573,676944,0.00135213,0.00537283,0.00368311
677555,0.0860554,-0.0381005,-9.71925,677555,0.00382528,0.00841586,0.00919335
678155,0.0484633,-0.00960664,-9.75712,678155,0.00375737,0.00476441,0.00126404
678766,0.0295955,-0.000101058,-9.76177,678766,0.00500165,0.00598207,0.00493388
679366,0.0436222,-0.0190906,-9.7333,679366,0.00197967,0.00719826,0.00612823
679977,0.0719304,-0.0808535,-9.72396,679977,0.00683152,0.00598274,0.00616905
680588,0.0813482,-0.0761036,-9.71925,680588,0.00501774,0.00902365,0.00676432
681200,0.0957697,-0.0381382,-9.77166,681200,0.00622535,0.00780728,0.0061644
681800,0.0956696,-0.0333752,-9.75262,681800,0.00319832,0.00963152,0.00674905
682411,0.0813465,-0.00959808,-9.72397,682411,0.00375266,0.00719711,0.000654826
683022,0.0862669,-0.0143752,-9.76208,683022,0.00199495,0.00598232,0.00795752
683622,0.0296881,0.0141384,-9.7808,683622,0.00563895,0.00476674,0.00859792
684233,0.0155689,0.0188885,-9.79025,684233,0.00685186,0.00415875,0.00860804
684844,0.0862349,0.00463029,-9.7573,684844,0.0043902,0.00719822,0.0043192
685444,0.0862877,-0.00487711,-9.76683,685444,0.00622007,0.0071989,0.00555437
686055,0.0440168,-0.0238906,-9.80946,686055,0.00439031,0.00780644,0.00431936
686666,0.0720968,-0.00486843,-9.762,686666,0.00863588,0.00780724,0.00435536
687266,0.0861159,-0.0048555,-9.73351,687266,0.00500165,0.00598207,0.00493388
687877,0.081456,-0.0381141,-9.74303,687877,0.00749054,0.010242,0.0122741
688488,0.0909475,-0.0333734,-9.75259,688488,0.00380966,0.00780715,0.00736357
689088,0.086316,-0.0143814,-9.7716,689088,0.00742769,0.00598252,0.00495445
689700,0.0909288,0.0141327,-9.75256,689700,0.00499142,0.00658995,0.0037143
690311,0.0720799,0.0378871,-9.76197,690311,0.00441617,0.00780727,0.00736872
690922,0.0674482,-0.00487583,-9.77625,690922,0.00561333,0.00598234,0.00554889
691522,0.058036,-0.0238776,-9.78098,691522,0.00380403,0.00537412,0.00675304
692133,0.0155254,0.0046428,-9.78074,692133,0.00502762,0.00659111,0.0079834
692733,0.0296012,-0.0143529,-9.76178,692733,0.00500648,0.00415758,0.00554326
693344,0.0768056,-0.0333709,-9.75728,693344,0.00561816,0.00415786,0.00615826
693955,0.0861706,-0.0191135,-9.74304,693955,0.00319234,0.00537384,0.00613802
694566,0.0436769,-0.0333486,-9.74283,694566,0.00501739,0.007199,0.00676382
695166,0.0343327,-0.0381078,-9.76182,695166,0.00259124,0.00659033,0.00674308
695777,0.072025,-0.00960978,-9.74772,695777,0.00138833,0.00537399,0.00795222
696388,0.0767207,-0.00485795,-9.74298,696388,0.00317143,0.00415674,0.00369821
696988,0.0768434,-0.00487338,-9.76678,696988,0.000776077,0.00233263,0.00733637
697600,0.0674576,-0.0286289,-9.77627,697600,0.00136788,0.00658976,0.00551306
698211,0.0484783,-0.0476115,-9.75714,698211,0.00321889,0.00902397,0.00918837
698811,0.0483916,-0.014348,-9.74284,698811,0.00256549,0.00719771,0.0036939
699422,0.071942,0.0141525,-9.73342,699422,0.000756079,0.00598127,0.00489788
700011,0.0719873,0.0236476,-9.74294,700011,0.00194876,0.00780548,0.00246918
700611,0.0862293,0.0188821,-9.75729,700611,0.000165999,0.0108474,0.00672367
701222,0.119341,-0.000139529,-9.767,701222,0.000720683,0.0102376,0.000629939
701833,0.0910534,0.0093667,-9.77636,701833,0.00069437,0.00780393,-0.00242008
702433,0.0532007,0.0141415,-9.76189,702433,0.00074091,0.00780542,0.00306876
703044,0.0531081,-9.80254e-05,-9.74286,703044,-0.00166962,0.00780546,0.0048778
703655,0.0671121,-0.0238351,-9.70962,703655,0.0038046,0.0084152,0.00675387
704266,0.0671895,-0.0333456,-9.72391,704266,0.000751253,0.00780575,0.00428851
704866,0.0155196,-0.0428602,-9.77601,704866,-0.000378687,0.00963283,0.0140366
705477,-0.0221895,-0.0286028,-9.79009,705477,-0.000456713,0.00719747,0.00488793
706077,0.0202834,-0.0238658,-9.78554,706077,0.000175424,0.00598198,0.00794209
706688,0.0675445,-0.000137562,-9.79529,706688,-0.00170076,0.00719625,0.00121841
707300,0.0579813,-0.00961963,-9.77145,707300,-0.00163836,0.00902289,0.00853737
707911,0.0343081,-0.0381047,-9.75706,707911,-0.00291906,0.00658764,0.000598092
708511,0.0201455,-0.0476004,-9.757,708511,-0.0016233,0.00659052,0.0103663
709122,0.0154025,-0.0570966,-9.75222,709122,-0.0035204,0.00658769,0.00120282
709733,0.0389473,-0.0143443,-9.74279,709733,-0.00281599,0.0047663,0.012795
710333,0.0483841,0.00465445,-9.74283,710333,0.000118541,0.00598016,0.00123351
710944,0.076785,0.0188859,-9.75725,710944,-0.00159733,0.00719956,0.0134158
711555,0.0909722,0.0283784,-9.76207,711555,-0.00227636,0.00658891,0.00487233
712155,0.04862,-0.0333782,-9.78569,712155,-0.00402889,0.00537429,0.0127849
712766,0.0486539,-0.0571344,-9.79047,712766,-0.00469194,0.00719701,0.00607167
713377,0.0439469,-0.0333825,-9.79519,713377,-0.00286264,0.00415659,0.00730601
713988,0.0107163,-0.0238467,-9.76169,713988,-0.00348926,0.0071969,0.00486221
714588,0.0294293,-0.0143313,-9.72846,714588,-0.00531362,0.00902104,0.00423741
715200,0.0342686,-9.67495e-05,-9.75228,715200,-0.00648538,0.00841392,0.00910592
715800,0.0483123,-8.69036e-05,-9.72855,715800,-0.00406957,0.00902227,0.00790692
716411,0.0719004,-0.00484374,-9.72392,716411,-0.00462517,0.00476629,0.0139993
717022,0.020123,0.00940698,-9.75696,717022,-0.00469228,0.00537235,0.00607117
717633,0.0155102,-0.0191072,-9.77599,717633,-0.00643424,0.0053745,0.0152038
718233,0.0675331,-0.0333888,-9.79055,718233,-0.00531993,0.00293871,0.00362588
718844,0.0628619,-0.0381437,-9.80005,718844,-0.00522651,0.00476635,0.0146041
719444,0.0486181,-0.0286276,-9.78569,719444,-0.0040906,0.00719695,0.00546694
720055,0.0296484,-0.00960846,-9.7713,720055,-0.00464023,0.00719866,0.0121704
720666,0.0390738,-0.0238609,-9.7666,720666,-0.00534545,0.00476253,0.000577025
721277,0.0627298,-0.0143752,-9.77623,721277,-0.00461414,0.00841592,0.0152201
721877,0.0626581,-0.0191165,-9.76196,721877,-0.0041106,0.0108456,0.00302845
722488,0.0674501,-0.00962644,-9.77626,722488,-0.00405417,0.00841455,0.00973637
723100,0.0626279,-0.00486162,-9.75719,723100,-0.00290815,0.00962905,0.00181866
723700,0.0577716,-0.0380955,-9.72862,723700,-0.00344204,0.0108477,0.010352
724311,0.0486955,-0.0381381,-9.79998,724311,-0.00350926,0.0108455,0.00242372
724922,0.0346462,-0.0238961,-9.8237,724922,-0.00521559,0.00780776,0.0158246
725522,0.0721458,-0.0048746,-9.77152,725522,-0.00650124,0.00658878,0.00727581
726133,0.0955773,0.0141401,-9.73831,726133,-0.00469194,0.00719701,0.00607167
726744,0.0624769,0.00465812,-9.72862,726744,-0.00591967,0.0114538,0.00423293
727344,0.0294689,-0.0523393,-9.73325,727344,-0.00345261,0.00963093,0.00913197
727955,0.0437655,-0.0713627,-9.75713,727955,-0.004687,0.00598074,0.00668121
728566,0.0958207,-0.042895,-9.78118,728566,-0.00470239,0.00658846,0.00485176
729177,0.0863633,-0.00963698,-9.78111,729177,-0.00530362,0.00719673,0.00545665
729777,0.0672538,-0.00960175,-9.73818,729777,-0.00229141,0.00902128,0.00304338
730388,0.0673178,-0.0476128,-9.74772,730388,-0.00346812,0.00963043,0.00730235
731000,0.0343647,-0.0571133,-9.76659,731000,-0.00290298,0.00962922,0.00242853
731600,0.0531986,-0.0428628,-9.75716,731600,-0.00404923,0.00719828,0.0103459
732211,0.0911116,-0.0761474,-9.78118,732211,-0.00347398,0.00598096,0.00669149
732811,0.0580963,-0.0523875,-9.79052,732811,-0.00224522,0.00719813,0.00853173
733422,0.0531836,-0.0048579,-9.75714,733422,-0.00410566,0.00962932,0.00363799
734033,0.0577131,-0.0143363,-9.71909,734033,-0.0046346,0.0096317,0.0127809
734644,0.0343025,-0.0238529,-9.75705,734644,-0.00290321,0.00841279,0.0024282
735244,0.0390342,0.0141471,-9.76181,735244,-0.00228118,0.0084134,0.00426296
735855,0.0342555,0.0331575,-9.75226,735855,-0.00165364,0.0102388,0.00670808
736466,0.0533611,-0.0191313,-9.79047,736466,0.000176456,0.0114559,0.00794358
737066,0.0910136,-0.0143802,-9.76686,737066,-0.00229141,0.00902128,0.00304338
737677,0.0861613,0.00463955,-9.74302,737677,-0.00162308,0.00780695,0.0103666
738288,0.0956149,-0.0191172,-9.74309,738288,-0.00285701,0.00658963,0.00791655
738888,0.133296,-0.0238704,-9.72424,738888,-0.00100634,0.00719918,0.0115914
739500,0.114494,0.00462838,-9.74317,739500,-0.00105322,0.00537304,0.00610203
740111,0.119415,-0.000148788,-9.78128,740111,0.000159223,0.00233218,0.00611149
740711,0.124172,-0.0286574,-9.78608,740711,-0.00226073,0.00719763,0.00670211
741322,0.0721232,-0.00962213,-9.76676,741322,-0.000420399,0.00780685,0.00915719
741933,0.0721856,0.0188723,-9.78102,741933,-0.00225498,0.0102389,0.00731281
742544,0.0958038,-0.000139477,-9.78115,742544,-0.00163859,0.00780645,0.00853703
743144,0.0721723,-0.0096283,-9.77628,743144,-0.000467056,0.00719714,0.00366818
743755,0.0674407,0.0141266,-9.77624,743755,-0.00287207,0.009022,0.00608759
744355,0.0675371,0.0188649,-9.79528,744355,0.000782279,0.00780675,0.00794773
744966,0.0581891,0.0236069,-9.81427,744966,-0.00227096,0.00780551,0.00548253
745577,0.0535046,-0.00964863,-9.81902,745577,0.00138902,0.00902329,0.00795321
746177,0.0582606,-0.0334066,-9.82382,746177,0.00132662,0.00719666,0.000634257
746788,0.0533744,0.00936925,-9.79521,746788,0.00142476,0.00659159,0.0122216
747400,0.0769587,0.0141136,-9.79057,747400,0.00134191,0.00598072,0.00246354
748011,0.128857,0.0045981,-9.78132,748011,0.00200047,0.00780714,0.00856789
748611,0.114666,0.00460677,-9.77649,748611,0.00191738,0.00597984,-0.00119055
749222,0.0768907,-0.000128942,-9.7763,749222,0.00321832,0.00598288,0.00918754
749833,0.0531836,-0.0048579,-9.75714,749833,0.00133214,0.00902147,0.00124462
750433,0.114634,0.0236123,-9.77172,750433,0.00139982,0.0114565,0.0091736
751044,0.133551,0.0141005,-9.77658,751044,0.00196496,0.0114553,0.00429978
751655,0.0534782,-0.00489493,-9.81426,751655,0.0014097,0.00902396,0.0103927
752255,0.0252397,0.00460512,-9.83315,752255,-0.00107357,0.00719703,0.00366304
752866,0.0438375,-0.00486652,-9.77613,752866,-0.000441199,0.00719797,0.00671753
753477,0.0816392,-0.0048845,-9.78109,753477,0.0019745,0.0071981,0.00551837
754077,0.0722459,-0.00963756,-9.79056,754077,0.00136822,0.00841441,0.00551356
754688,0.0342969,-0.00960106,-9.75704,754688,0.00137316,0.00719815,0.00612309
755300,0.0437431,-0.0143554,-9.7571,755300,0.000797106,0.00415794,0.00977635
755900,0.053142,-0.0238542,-9.74763,755900,0.00138293,0.00415739,0.00734201
756511,0.057866,-0.0286066,-9.74766,756511,0.003172,0.00719783,0.00369904
757122,0.0769416,-0.00488573,-9.78582,757122,0.00259686,0.00902336,0.00735362
757722,0.067437,0.0236278,-9.77623,757722,0.00376726,0.00233187,0.00248312
758333,0.0483803,0.0141557,-9.74282,758333,0.00259618,0.00537406,0.00735263
758944,0.0106995,0.0189088,-9.76166,758944,0.000735624,0.00719704,0.00245873
759555,0.0014195,0.0378934,-9.79492,759555,0.00137845,0.00780653,0.00673313
760155,0.0391871,-0.000123302,-9.79038,760155,0.00254021,0.010238,0.000645367
760766,0.0531647,-0.0191066,-9.75239,760766,0.00200587,0.00902374,0.00917809
761366,0.0532722,-0.042872,-9.77144,761366,0.00134753,0.00841375,0.00307407
761977,0.0344517,-0.028622,-9.78562,761977,0.000776535,0.0047655,0.00733703
762588,0.0296409,0.00939399,-9.77129,762588,0.00194255,0.00233136,0.00185782
763188,-0.00352375,-0.0238318,-9.74734,763188,0.00200507,0.00476622,0.00917693
763800,-0.00358427,-0.0570768,-9.73308,763800,0.000139112,0.0053726,0.00367283
764411,0.0579,-0.0523628,-9.75243,764411,0.00139362,0.00598237,0.00856225
765022,0.058087,-0.0286344,-9.7905,765022,0.00076665,0.00719803,0.00611795
765622,0.0674955,-0.000131389,-9.78577,765622,0.000181397,0.0102397,0.00855312
766233,0.081628,0.0236192,-9.78107,766233,0.00380517,0.0114563,0.00675469
766833,0.0627997,-0.00488323,-9.79051,766833,0.003219,0.00963219,0.00918854
767444,0.0389756,-0.0238486,-9.74756,767444,0.00379414,0.00780665,0.00553396
768044,0.0437903,-0.00961095,-9.76661,768044,0.00255469,0.00476451,0.00247349
768655,0.039038,0.00464583,-9.76182,768655,0.00313006,0.00415541,-0.00118075
769266,0.0248206,0.0094082,-9.75222,769266,0.00315075,0.00415608,0.00125873
769866,0.048537,-0.0096159,-9.7714,769866,0.00261709,0.00659115,0.00979244
770477,0.0484972,-0.0333628,-9.76189,770477,0.000793081,0.0102399,0.00916813
771088,0.0484292,-0.0476054,-9.74762,771088,0.0026326,0.00659165,0.0116221
771688,0.0578717,-0.0428585,-9.74767,771688,0.00195841,0.00415651,0.00368793
772300,0.0486427,-0.0286307,-9.79045,772300,0.000212081,0.00841601,0.0122118
772911,0.0532855,-0.0143715,-9.77619,772911,0.003135,0.00293915,-0.000571217
773511,0.0390134,0.00464891,-9.75706,773511,0.00318189,0.00476529,0.00491812
774122,0.0202438,0.0141422,-9.78076,774122,-0.00107379,0.00598059,0.00366271
774733,0.0108486,0.0141397,-9.79023,774733,0.000196796,0.00963195,0.0103826
775333,-0.0127942,0.0331546,-9.78533,775333,0.000124058,0.00780497,0.00184388
775944,0.015482,-0.00960287,-9.77123,775944,-0.000378801,0.00902461,0.0140365
776555,0.0391927,-0.0143751,-9.79039,776555,-0.000482684,0.00658843,0.0018384
777155,0.0486069,-0.00012394,-9.78567,777155,0.000190595,0.00415783,0.00977121
777766,0.0861952,-0.0191166,-9.7478,777766,-0.000451313,0.00841407,0.00549813
778377,0.0720325,-0.0286122,-9.74773,778377,-0.00163836,0.00902289,0.00853737
778988,0.0533987,-0.0523887,-9.79525,778988,0.000160484,0.00902257,0.0061133
779588,0.0488126,-0.0239017,-9.82377,779588,0.000175998,0.00902306,0.00794292
780200,0.0581437,0.0141118,-9.80475,780200,0.000745736,0.00598093,0.00367814
780811,0.0674898,0.0141204,-9.78576,780811,0.000144513,0.0065892,0.00428303
781411,0.0486088,-0.00487455,-9.78568,781411,0.000165198,0.00658987,0.00672251
782022,0.0296578,-0.0333615,-9.77132,782022,-0.00106299,0.00841379,0.00488311
782633,0.0342081,-0.0333418,-9.73802,782633,-0.000414656,0.0108481,0.00976789
783233,0.0673538,-0.0143647,-9.75722,783233,0.000746081,0.00780559,0.00367863
783844,0.0628035,-0.0143845,-9.79051,783844,0.000170482,0.00719825,0.00733255
784455,0.0533007,0.00937851,-9.78093,784455,-0.00108919,0.00658831,0.00183326
785055,0.0861877,-0.000114147,-9.74779,785055,-0.000394315,0.00902411,0.0122069
785666,0.0767263,-0.0191098,-9.74299,785666,0.0001298,0.0108462,0.00245458
786277,0.0532044,0.00464024,-9.76189,786277,-0.00103162,0.0102394,0.00854284
786877,0.0675502,-0.0143894,-9.7953,786877,0.000134284,0.00719709,0.00306346
787488,0.077102,-0.0381585,-9.8144,787488,0.000201968,0.00963211,0.0109924
788100,0.0909985,-0.0381302,-9.76212,788100,-0.00104219,0.00902267,0.00732276
788700,0.100418,-0.0381308,-9.7574,788700,-0.000420285,0.00841507,0.00915735
789311,0.0815958,-0.0191302,-9.77157,789311,0.000139683,0.00841369,0.00367366
789922,0.0578265,0.00940134,-9.74287,789922,-0.00043557,0.009631,0.00732807
790533,0.0529816,0.00941863,-9.71905,790533,-0.00103139,0.0114559,0.00854317
791133,0.0482896,-0.00483443,-9.72379,791133,-0.00103725,0.0078064,0.0079323
791744,0.0673426,0.014139,-9.7572,791744,-0.00102162,0.00841512,0.00976208
792355,0.0578737,0.0141458,-9.75239,792355,-0.0028569,0.00719785,0.00791671
792955,0.0341704,-8.44039e-05,-9.73324,792955,0.000159681,0.00476505,0.00611215
793566,0.0529307,0.0141754,-9.70952,793566,-0.00228659,0.0071968,0.00365276
794177,0.0627488,-0.00012644,-9.78098,794177,-0.00282564,0.00841527,0.0115763
794777,0.0300014,-0.0334047,-9.83796,794777,-0.00228141,0.00719696,0.00426263
795388,0.0108749,-0.0523689,-9.79027,795388,-0.00284678,0.00598174,0.00913612
796000,0.043726,-0.0333548,-9.75235,796000,-0.00168547,0.00598031,0.0030477
796600,0.0531345,-0.00485172,-9.74762,796600,-0.0022351,0.00598202,0.00975114
797211,0.0720477,-0.00486226,-9.75248,797211,-0.00226038,0.00902228,0.0067026
797822,0.0814712,-0.0143641,-9.74777,797822,-0.00404934,0.00659006,0.0103457
798422,0.0673783,-0.0143678,-9.76198,798422,-0.00351455,0.0102372,0.00181368
799033,0.0532157,-0.0238634,-9.76191,799033,-0.00162813,0.008415,0.00975694
799644,0.0296767,-0.0191128,-9.77607,799644,-0.00349466,0.0059803,0.00425201
800244,0.0392098,0.00462423,-9.79514,800244,-0.0046762,0.00841394,0.00790161
800855,0.043862,-0.0048696,-9.78089,800855,-0.00529868,0.00598046,0.00606619
801466,0.0627675,-0.0476326,-9.78102,801466,-0.00343215,0.00841516,0.0115711
802066,0.0675803,-0.0286443,-9.80007,802066,-0.00404866,0.0102394,0.0103467
802677,0.0770454,-0.0191499,-9.80487,802677,-0.00164905,0.00719791,0.00731712
803288,0.0676086,-0.0381486,-9.80484,803288,0.000165656,0.00902273,0.00672317
803888,0.0583193,0.004589,-9.83808,803888,-0.000451313,0.00841407,0.00549813
804500,0.0914744,-0.000186997,-9.85729,804500,-0.00341652,0.00902387,0.0134009
805111,0.105341,0.0140963,-9.80024,805111,-0.00222464,0.00659057,0.010971
805711,0.0863144,0.0521241,-9.77631,805711,-0.0046354,0.00537418,0.0127798
806322,0.0817035,0.0188593,-9.79535,806322,-0.00532936,0.00780411,0.00240747
806933,0.105446,-0.0049185,-9.81929,806933,-0.004002,0.0108491,0.0158357
807533,0.0769814,0.0188612,-9.79533,807533,-0.00291872,0.00841229,0.000598587
808144,0.0485124,-0.00961282,-9.76664,808144,-0.00282587,0.00719884,0.0115759
808755,0.0345933,-0.0143887,-9.81417,808755,-0.00472768,0.00962871,0.00180323
809366,0.0535046,-0.00964863,-9.81902,809366,-0.0016179,0.00780712,0.0109765
809966,0.0815939,-0.0143796,-9.77157,809966,-0.00229221,0.00476377,0.00304222
810577,0.0625921,0.0236451,-9.75241,810577,-0.00462965,0.00841543,0.0133904
811188,0.067318,0.0141421,-9.75244,811188,-0.00471745,0.00902083,0.00302281
811788,0.100413,-0.023879,-9.75739,811788,-0.00285196,0.00598158,0.00852625
812400,0.0862064,-0.0476203,-9.74782,812400,-0.0023121,0.00902062,0.000603896
813011,0.0720759,-0.0143666,-9.75724,813011,-0.00346352,0.00658951,0.0079114
813611,0.109961,0.023608,-9.78121,813611,-0.00287781,0.00598075,0.0054769
814222,0.0958774,-0.000148736,-9.79543,814222,-0.00163893,0.0059818,0.00853654
814833,0.067452,-0.0143771,-9.77626,814833,-0.00106288,0.00902201,0.00488328
815433,0.067301,-0.00485731,-9.74769,815433,-0.00167456,0.00902173,0.00426827
816044,0.062745,0.00937478,-9.78098,816044,-0.00225556,0.00719779,0.00731198
816655,0.048756,-0.00489307,-9.81424,816655,-0.00351478,0.00902072,0.00181335
817255,0.0391927,-0.0143751,-9.79039,817255,-0.00224522,0.00719813,0.00853173
817866,0.0814674,-0.0048629,-9.74776,817866,-0.000498312,0.00597971,8.62591e-06
818477,0.0958227,0.0141093,-9.78591,818477,-0.000389718,0.00598319,0.0128159
819077,0.0440491,0.0188588,-9.81896,819077,-0.00229187,0.00658842,0.00304272
819688,0.0391361,0.00463348,-9.78086,819688,-0.00341135,0.00902404,0.0140108
820300,0.0485351,-0.00486529,-9.77139,820300,-0.00228613,0.00962967,0.00365342
820911,0.0578887,-0.0238591,-9.75241,820911,-0.00159756,0.00598313,0.0134155
821511,0.0531817,-0.000107285,-9.75714,821511,-0.00229221,0.00476377,0.00304222
822122,0.0295729,-0.00484858,-9.75702,822122,-0.0028207,0.00719901,0.0121858
822733,0.0390359,-0.0523584,-9.7571,822733,-0.0011347,0.0120608,-0.00365409
823333,0.072191,-0.0571344,-9.77631,823333,-0.00162285,0.00902339,0.010367
823944,0.0673538,-0.0143647,-9.75722,823944,-0.00411106,0.00841272,0.00302779
824555,0.0342969,-0.00960106,-9.75704,824555,-0.00345318,0.00658984,0.00913114
825155,0.0343044,-0.0286035,-9.75706,825155,-0.00166444,0.00780562,0.00548768
825766,0.0767245,-0.0143592,-9.74299,825766,-0.000389259,0.00841606,0.0128166
826377,0.0909835,-0.000125268,-9.76209,826377,0.000175998,0.00902306,0.00794292
826977,0.0721477,-0.00962522,-9.77152,826977,-0.00167019,0.00476438,0.00487698
827588,0.0532818,-0.00487024,-9.77618,827588,-0.00225027,0.00780617,0.00792202
828200,0.0579511,0.00463529,-9.76668,828200,-0.00106322,0.00719736,0.00488278
828811,0.0673935,0.00938218,-9.76672,828811,0.00078205,0.00659031,0.0079474
829411,0.0721402,0.00937723,-9.77151,829411,0.000735739,0.00780525,0.00245889
830022,0.10488,-9.6906e-05,-9.7098,830022,-0.00101185,0.00537436,0.010981
830622,0.0625052,-0.00484619,-9.73339,830622,0.000108315,0.00658804,1.39344e-05
831233,0.0203986,-0.00487881,-9.80933,831233,-0.000373859,0.00780834,0.014646
831844,0.0295521,-0.0143467,-9.75226,831844,-0.00050314,0.0078042,-0.000600751
832444,0.043607,-0.0428405,-9.72855,832444,0.000828248,0.00476716,0.0134357
833055,0.0438261,-0.0381177,-9.77139,833055,0.000129113,0.00719692,0.00245358
833655,0.043813,-0.00486343,-9.77137,833655,-0.00218293,0.00841655,0.0158505
834255,0.0533045,-0.000122715,-9.78094,834255,0.00130042,0.00537117,-0.0024156
834866,0.0344989,-0.0238776,-9.79513,834866,0.000123369,0.00415567,0.00184289
835477,0.02034,-0.0428744,-9.79507,835477,0.00136259,0.00598138,0.00490302
836077,0.0250111,-0.0381195,-9.78557,836077,0.00201012,0.00415817,0.00978664
836688,0.0248715,0.00465142,-9.76175,836688,0.00198978,0.00598216,0.00734765
837300,0.0484313,0.00939889,-9.75235,837300,0.00197978,0.00780648,0.0061284
837911,0.0955848,-0.00486231,-9.73832,837911,0.00199541,0.00841519,0.00795818
838511,0.0672764,-0.00485422,-9.74293,838511,0.00255492,0.00598095,0.00247382
839122,0.00597902,-0.0475948,-9.75692,839122,0.00262226,0.00659132,0.0104023
839722,0.00147404,-0.0381195,-9.79973,839722,0.00258101,0.00719821,0.00552351
840333,0.0202361,-0.0286103,-9.77602,840333,0.00138282,0.00354918,0.00734184
840944,0.0484577,0.00464519,-9.75711,840944,0.000144742,0.00780564,0.00428336
841555,0.0628243,-0.00488631,-9.79527,841555,0.00201092,0.00841569,0.0097878
842155,0.0344743,-0.0238745,-9.79038,842155,0.00132651,0.00658844,0.000634091
842766,0.0108014,0.00939527,-9.78071,842766,0.00322383,0.0078077,0.00979792
843377,0.0342931,-9.98359e-05,-9.75704,843377,0.00374243,0.007805,-0.000564752
843977,0.0720383,0.0188908,-9.75246,843977,0.00138867,0.00719864,0.00795271
844588,0.0626185,0.0188914,-9.75717,844588,0.00192198,0.00293892,-0.000581503
845200,0.0437092,0.00940075,-9.75232,845200,0.0014351,0.00659192,0.0134414
845800,0.0862387,-0.00487093,-9.75731,845800,-0.000456942,0.00598104,0.00488759
846411,0.0863708,-0.0286394,-9.78113,846411,-0.00102254,0.00354938,0.00976076
847022,0.0344631,0.00462917,-9.79036,847022,0.00133685,0.00658877,0.00185383
847622,0.0486428,0.0331242,-9.79517,847622,-0.00102725,0.00598208,0.00915155
848233,0.0580173,0.0236285,-9.78094,848233,0.00253458,0.00780493,3.48352e-05
848844,0.0343025,-0.0238529,-9.75705,848844,0.00257101,0.00902253,0.00430427
849444,0.039034,-0.0476078,-9.75709,849444,0.000761937,0.00963074,0.00550875
850055,0.0864105,-0.00489254,-9.79063,850055,0.00379391,0.00659022,0.00553363
850666,0.0863691,0.0378661,-9.78584,850666,0.00259629,0.00598227,0.00735279
851266,0.0861727,0.0378907,-9.74776,851266,0.00321291,0.00476629,0.00857735
851877,0.0862557,0.0141284,-9.76206,851877,0.000185538,0.00476588,0.0091615
852488,0.0485879,-0.0143727,-9.78092,852488,0.00254458,0.00598061,0.00125408
853100,0.0438148,-0.00961404,-9.77137,853100,0.00262203,0.00537488,0.010402
853700,0.0531703,-0.0333585,-9.7524,853700,0.00195852,0.00476473,0.00368809
854311,0.0578773,-0.0571103,-9.74768,854311,0.00263192,0.00294235,0.0116211
854922,0.0862952,-0.0238796,-9.76684,854922,0.00375254,0.00658889,0.000654662
855522,0.0955565,0.004642,-9.73355,855522,0.003239,0.00598355,0.011627
856133,0.0342459,-0.00484427,-9.74752,856133,0.000694025,0.00597928,-0.00242057
856744,0.0201398,-0.0333485,-9.75699,856744,-0.00100634,0.00719918,0.0115914
857344,0.0436769,-0.0333486,-9.74283,857344,0.000719881,0.00598011,0.000628782
857955,0.0768434,-0.00487338,-9.76678,857955,0.00081262,0.00415844,0.011606
858566,0.0815637,-0.000124631,-9.7668,858566,-0.000477169,0.00841324,0.00244877
859166,0.0580173,0.0236285,-9.78094,859166,0.00022771,0.00902472,0.0140416
859777,0.0769304,0.0236179,-9.7858,859777,0.00197415,0.00537344,0.00551787
860388,0.053178,0.00939394,-9.75713,860388,0.00258549,0.00354907,0.00613238
860988,0.0578718,0.0188964,-9.75239,860988,-0.00226096,0.00598119,0.00670178
861600,0.0721119,0.0188815,-9.76674,861600,-0.00104208,0.00963089,0.00732292
862211,0.0342931,-9.98359e-05,-9.75704,862211,0.000155771,0.0114553,0.0055041
862811,0.0482745,-0.0285844,-9.71905,862811,0.000756767,0.00963057,0.00489887
863422,0.0954997,-0.0381043,-9.7193,863422,0.0014035,0.00354984,0.00978133
864033,0.0767962,-0.00961782,-9.75726,864033,-0.000467973,0.0023314,0.00366686
864633,0.0722251,-0.0191357,-9.78581,864633,0.0014089,0.00476644,0.0103915
865244,0.072259,-0.0428918,-9.79058,865244,0.00134731,0.00719732,0.00307374
865855,0.0439942,-0.0286381,-9.80471,865855,0.00264329,0.00841663,0.0128423
866455,0.0250698,-0.000123886,-9.79983,866455,-0.000477511,0.00658859,0.00244828
867066,0.0483691,0.0426593,-9.7428,867066,0.000201397,0.00659103,0.0109916
867677,0.0578153,0.037905,-9.74285,867677,-0.0017057,0.00841252,0.000608873
868288,0.039106,0.0188884,-9.77609,868288,0.000782164,0.00719853,0.00794757
868888,0.0250151,0.0141341,-9.7903,868888,-0.000482341,0.00841308,0.0018389
869500,0.0392098,0.00462423,-9.79514,869500,0.00142476,0.00659159,0.0122216
870111,0.0628243,-0.00488631,-9.79527,870111,0.000170482,0.00719825,0.00733255
870711,0.0250282,-0.0191202,-9.79032,870711,0.000196453,0.00780729,0.0103821
871322,0.0439413,-0.0191307,-9.79518,871322,0.000134284,0.00719709,0.00306346
871933,0.0723158,-0.000145597,-9.80484,871933,-0.00344766,0.00841466,0.00974151
872533,0.0770908,-0.00965486,-9.81439,872533,0.000719881,0.00598011,0.000628782
873144,0.0722894,0.0046081,-9.80007,873144,0.000201626,0.00780746,0.0109919
873755,0.0910195,0.0331228,-9.77159,873755,-0.00170076,0.00719625,0.00121841
874355,0.0721119,0.0188815,-9.76674,874355,-0.000420857,0.00537398,0.00915652
874966,0.0201155,0.0284094,-9.75695,874966,-0.00344169,0.0126723,0.0103525
875577,0.0579511,0.00463529,-9.76668,875577,-0.00285092,0.0114555,0.00852774
876177,0.114504,-0.0191247,-9.74318,876177,-0.00223419,0.0108478,0.00975246
876788,0.105186,-0.0286376,-9.76694,876788,0.000160025,0.0065897,0.00611264
877400,0.0581417,-0.0428924,-9.80003,877400,-0.00101174,0.00598258,0.0109812
878011,0.0484954,-0.0286122,-9.76189,878011,0.000149798,0.00719759,0.00489307
878611,0.0486653,-0.0238832,-9.79521,878611,0.000195766,0.00415799,0.0103811
879222,0.0486691,-0.0333844,-9.79521,879222,-0.00109953,0.00658798,0.00061352
879822,0.067503,-0.0191338,-9.78578,879822,-0.00404394,0.00780666,0.0109559
880433,0.0722422,-0.000136338,-9.79056,880433,-0.00472722,0.0120616,0.00180389
881044,0.0580021,-0.000121491,-9.7762,881044,-0.00402291,0.00963198,0.0133959
881655,0.0534064,-0.00963628,-9.79998,881655,-0.0023121,0.00902062,0.000603896
882255,0.0627336,-0.0238764,-9.77624,882255,-0.00343709,0.00963143,0.0109616
882866,0.0814333,-0.0428616,-9.73827,882866,-0.00349961,0.00719657,0.00364247
883477,0.0531156,-0.0191005,-9.74287,883477,-0.00163319,0.00902305,0.00914723
884077,0.053146,0.0283995,-9.75236,884077,-0.000471653,0.0102381,0.00305914
884688,0.0674143,0.0188803,-9.77148,884688,0.000211967,0.00780779,0.0122117
885300,0.048688,-0.0191356,-9.79996,885300,-0.00403395,0.00598234,0.0121752
885900,0.0484633,-0.00960664,-9.75712,885900,-0.00223533,0.00476559,0.0097508
886511,0.0625769,-0.000104835,-9.74766,886511,-0.00224016,0.00659007,0.00914142
887122,0.0533346,-0.0143776,-9.78571,887122,-0.0022659,0.00719746,0.00609224
887722,0.0532648,-0.0238696,-9.77143,887722,-0.00345295,0.00780628,0.00913147
888333,0.0484009,-0.0381011,-9.74286,888333,-0.00229693,0.00719647,0.00243301
888944,0.0484935,-0.0238616,-9.76189,888944,-0.00161802,0.0071989,0.0109763
889544,0.029654,-0.0238603,-9.77131,889544,-0.00289781,0.00962939,0.0030384
890155,0.0248204,-0.0523467,-9.7475,890155,-0.00106299,0.00841379,0.00488311
890766,0.0389812,-0.0381004,-9.74757,890766,-0.00228095,0.00962983,0.00426329
891366,0.0720383,0.0188908,-9.75246,891366,-0.00103208,0.00780657,0.00854217
891977,0.0579946,0.018881,-9.77619,891977,-0.00107368,0.00658881,0.00366287
892588,0.0533536,-0.000128889,-9.79046,892588,0.000201739,0.00841568,0.0109921
893188,0.0861367,0.00464264,-9.73826,893188,-0.00224522,0.00719813,0.00853173
893800,0.076885,0.0141229,-9.77629,893800,-0.00164353,0.00902272,0.00792749
894411,0.0629923,0.00459331,-9.82858,894411,-0.00588922,0.00841371,0.00789133
895022,0.0627789,-0.0143814,-9.78575,895022,0.00140913,0.00598287,0.0103919
895622,0.067233,-0.0190999,-9.73342,895622,-0.000430742,0.00780652,0.00793745
896233,0.0246619,-0.0238245,-9.71892,896233,0.00138856,0.00659043,0.00795254
896833,0.0106315,0.00466626,-9.74739,896833,-0.000445914,0.00963067,0.00610833
897444,0.0248507,-0.00484672,-9.75699,897444,-0.0016541,0.00780596,0.00670742
898055,0.0249866,-0.0381164,-9.78081,898055,0.00138339,0.00659026,0.00734267
898655,0.053463,-0.0286449,-9.80952,898655,-0.00225016,0.00841439,0.00792219
899266,0.0485861,-0.00962208,-9.78092,899266,-0.00102714,0.0065903,0.00915171
899877,0.0341477,-0.00483193,-9.72848,899877,-0.00165341,0.0114553,0.00670841
900488,0.0295446,0.00465573,-9.75225,900488,-0.000430055,0.0114558,0.00793844
901088,0.0391909,-0.00962453,-9.79039,901088,-0.00349961,0.00719657,0.00364247
901700,0.0676502,-0.0191524,-9.81434,901700,-0.00224027,0.00598186,0.00914126
902311,0.0535291,-0.00965172,-9.82378,902311,0.000724938,0.00537205,0.00123849
902911,0.0344895,-0.000124525,-9.79512,902911,-0.000368346,0.00963316,0.0152564
903522,0.0672444,0.0141513,-9.73816,903522,-0.00231704,0.0102369,-5.64381e-06
904133,0.104916,-0.0286037,-9.71458,904133,-0.00103254,0.0053737,0.00854152
904733,0.0909702,-0.0286259,-9.75735,904733,-0.00110562,0.00172208,2.32644e-06
905344,0.0769096,0.0141198,-9.78105,905344,-0.00165479,0.00415665,0.00670642
905955,0.0625769,-0.000104835,-9.74766,905955,-0.00290321,0.00841279,0.0024282
906555,0.057783,-0.00484433,-9.73336,906555,-0.00341158,0.0078076,0.0140104
907166,0.0672689,0.0141482,-9.74292,907166,-0.00290321,0.00841279,0.0024282
907777,0.0624806,-0.0048431,-9.72863,907777,-0.000388915,0.0102407,0.0128171
908377,0.0625618,-0.0238548,-9.74292,908377,-0.00226544,0.00963033,0.0060929
908988,0.0627827,-0.0238826,-9.78576,908988,-0.000425801,0.00659025,0.00854699
909600,0.0392928,-0.0191381,-9.80944,909600,-0.00223993,0.00780651,0.00914176
910200,0.0532704,-0.0381214,-9.77144,910200,0.00200035,0.00719892,0.00856772
910811,0.0721024,-0.0191203,-9.76201,910811,0.00259629,0.00598227,0.00735279
911422,0.0344537,0.0283822,-9.79034,911422,0.00014394,0.00354812,0.00428221
912022,0.0391097,0.00938718,-9.7761,912022,-0.00163353,0.0071984,0.00914673
912633,0.0389814,0.0236544,-9.75229,912633,-0.00165387,0.00902239,0.00670775
913244,0.0202268,-0.0048572,-9.77601,913244,-0.00161216,0.0108484,0.0115872
913855,0.0533837,-0.0143838,-9.79523,913855,-0.00351489,0.0084125,0.00181319
914455,0.0862122,-0.000117233,-9.75255,914455,0.000195995,0.00537443,0.0103814
915066,0.0957528,0.00461731,-9.77163,915066,0.00075068,0.00476467,0.00428768
915677,0.0816827,0.00936116,-9.7906,915677,0.0013889,0.00841508,0.00795304
916277,0.0533271,0.00462481,-9.78569,916277,0.000756767,0.00963057,0.00489887
916888,0.0580682,0.0188717,-9.79047,916888,0.0014251,0.00841624,0.0122221
917500,0.0579492,0.00938591,-9.76667,917500,-0.00166433,0.00841384,0.00548784
918100,0.0673557,-0.0191153,-9.75722,918100,-0.00104817,0.00476499,0.00671173
918711,0.0674048,-0.0191215,-9.76674,918711,0.000160255,0.00780613,0.00611297
919322,0.0816488,0.0331173,-9.78582,919322,0.000170941,0.00963112,0.00733321
919922,0.0580607,0.0378741,-9.79046,919922,-0.00106311,0.00780557,0.00488295
920533,0.0248942,0.00939894,-9.7665,920533,0.000781821,0.00537388,0.00794707
921144,0.057917,-0.0333634,-9.75718,921144,0.00075585,0.00476483,0.00489755
921744,0.0721382,-0.047627,-9.76678,921744,-0.000420857,0.00537398,0.00915652
922355,0.048486,-0.00485912,-9.76187,922355,0.00198955,0.00476572,0.00734732
922966,0.0201022,-9.11616e-05,-9.7522,922966,0.00138305,0.00476561,0.00734217
923577,0.0154895,-0.0286053,-9.77124,923577,0.00136776,0.00598155,0.0055129
924177,0.0438205,-0.0238659,-9.77138,924177,0.000170253,0.00598181,0.00733222
924788,0.0769963,-0.0191437,-9.79535,924788,0.000776879,0.00659015,0.00733753
925400,0.0770908,-0.00965486,-9.81439,925400,0.00255998,0.00537289,0.00308353
926000,0.0391324,0.0141347,-9.78085,926000,0.000765849,0.00294051,0.00611679
926611,0.0392287,0.018873,-9.79989,926611,-0.00105322,0.00537304,0.00610203
927211,0.0580285,-0.00487519,-9.78096,927211,-0.00105862,0.00415644,0.00549183
927822,0.0718871,-0.0333443,-9.71917,927822,0.000138996,0.00476439,0.00367266
928433,0.0767093,-0.0381091,-9.73824,928433,-0.00100622,0.0078074,0.0115915
929044,0.0862726,-0.0286271,-9.76208,929044,0.00257009,0.00415679,0.00430294
929644,0.109925,-0.00964011,-9.77171,929644,-0.000415573,0.00598236,0.00976657
930255,0.100526,-0.000141338,-9.78118,930255,0.00256986,0.00294036,0.00430261
930866,0.0814637,0.00463833,-9.74776,930866,0.00139385,0.00719881,0.00856258
931466,0.0766868,0.0188982,-9.7382,931466,0.00073011,0.00537222,0.00184836
932077,0.0768416,-0.000122769,-9.76678,932077,0.00140925,0.00659109,0.010392
932688,0.0580379,-0.0286283,-9.78098,932688,-0.00166996,0.00598081,0.00487731
933288,0.081575,-0.0286283,-9.76682,933288,-0.00103243,0.00598192,0.00854168
933900,0.105197,0.00461358,-9.77168,933900,-0.00106885,0.00476433,0.00427225
934511,0.105192,0.0188654,-9.77167,934511,0.00200024,0.00659071,0.00856756
935111,0.0909664,-0.0191246,-9.75734,935111,0.00374163,0.00354748,-0.000565909
935722,0.076951,-0.0286388,-9.78584,935722,0.00321809,0.00476645,0.00918722
936333,0.0768944,-0.00963016,-9.7763,936333,-0.0022813,0.00780518,0.00426279
936944,0.0720306,-0.0238616,-9.74773,936944,-0.000959454,0.00902532,0.0170807
937544,0.0531458,-0.0333554,-9.74764,937544,-0.0022335,0.0144971,0.00975345
938155,0.0485746,-0.0428733,-9.77618,938155,0.000813995,0.011457,0.0116079
938755,0.0488145,-0.0286523,-9.82377,938755,-0.00105254,0.00902234,0.00610302
939366,0.0251624,0.0141156,-9.81886,939366,-0.000457285,0.00415639,0.0048871
939977,0.0720119,0.0236445,-9.7477,939977,0.000776535,0.0047655,0.00733703
940588,0.119029,0.042653,-9.70985,940588,-0.000425,0.0108478,0.00854815
941188,0.10012,0.0331623,-9.705,941188,-0.00163342,0.00780662,0.0091469
941800,0.0719703,0.00464822,-9.73819,941800,0.00134202,0.00658894,0.0024637
942411,0.0721949,-0.00488078,-9.78104,942411,0.00138833,0.00537399,0.00795222
943011,0.0816486,-0.0286376,-9.7811,943011,-0.00105874,0.00354822,0.00549166
943622,0.0534045,-0.00488567,-9.79998,943622,-0.000425801,0.00659025,0.00854699
944233,0.0392306,0.0141224,-9.79989,944233,-0.000452114,0.00415655,0.00549697
944833,0.0722195,-0.00488386,-9.7858,944833,0.000802848,0.00719919,0.010387
945444,0.0674992,-0.00963261,-9.78578,945444,-0.00107334,0.00841346,0.00366337
946055,0.0391852,0.00462731,-9.79038,946055,0.000201855,0.00902389,0.0109923
946655,0.0532479,0.0188859,-9.7714,946655,-0.00227567,0.0102382,0.00487332
947266,0.05787,0.023647,-9.75238,947266,0.00137362,0.00963101,0.00612375
947877,0.0483993,0.0284044,-9.74757,947877,-0.000461197,0.0108466,0.00427905
948488,0.0390097,0.0141501,-9.75705,948488,0.000211967,0.00780779,0.0122117
949088,0.0343951,-0.0096134,-9.77608,949088,0.00015451,0.00476488,0.00550228
949700,0.0438695,-0.023872,-9.7809,949700,0.00139948,0.00963184,0.00917311
950311,0.0296503,-0.0143591,-9.7713,950311,0.000782508,0.00902318,0.00794806
950911,0.0154272,0.00465514,-9.7617,950911,0.00078308,0.0120643,0.00794889
951522,0.0249545,-0.0191109,-9.77604,951522,0.00137868,0.00902296,0.00673346
952122,0.0391738,-0.0286239,-9.78564,952122,-0.000436028,0.00719814,0.00732741
952733,0.0437092,0.00940075,-9.75232,952733,0.00196404,0.00658955,0.00429846
953344,0.0483198,-0.0190894,-9.72856,953344,-0.000446372,0.0071978,0.00610766
953955,0.0341817,-0.0285881,-9.73326,953955,0.000186341,0.0090234,0.00916266
954555,0.0438412,-0.0143677,-9.77614,954555,0.000761708,0.0084143,0.00550841
955166,0.067754,-0.0334165,-9.83339,955166,0.000756653,0.00902235,0.00489871
955777,0.0630263,-0.0191628,-9.83336,955777,-0.00349938,0.008413,0.0036428
956377,0.0488051,-0.00489924,-9.82376,956377,-0.00104254,0.00719802,0.00732226
956988,0.048673,0.0188692,-9.79994,956988,0.000720683,0.0102376,0.000629939
957600,0.0673671,0.0141359,-9.76196,957600,0.0013943,0.00963168,0.00856324
958200,0.0720722,-0.00486534,-9.75724,958200,-0.00229198,0.0059802,0.00304255
958811,0.0485314,0.00463593,-9.77139,958811,-0.000415687,0.00537415,0.0097664
959422,0.0533082,-0.00962394,-9.78094,959422,-0.00226567,0.00841389,0.00609257
960022,0.0298541,-0.0333862,-9.8094,960022,-0.000995653,0.00902416,0.0128116
960633,0.0206214,-0.0096572,-9.85217,960633,-0.0023021,0.0071963,0.00182314
961244,0.0630471,-0.0096647,-9.83811,961244,0.00018071,0.00659036,0.00855213
961844,0.0390946,-0.0143628,-9.77135,961844,-0.00229221,0.00476377,0.00304222
962455,0.0248507,-0.00484672,-9.75699,962455,-0.00222993,0.00598219,0.010361
963066,0.0862424,-0.0143722,-9.75732,963066,0.00010797,0.00476339,1.3439e-05
963677,0.0862197,-0.0191197,-9.75256,963677,0.000782164,0.00719853,0.00794757
964277,0.0249036,-0.0143541,-9.76652,964277,0.000710225,0.00962908,-0.000589969
964888,0.0107088,-0.00484422,-9.76168,964888,-0.00222407,0.00963166,0.0109719
965488,0.0342233,-0.0095918,-9.74276,965488,-0.00105231,0.0102388,0.00610335
966100,0.0485106,-0.00486221,-9.76663,966100,-0.00163859,0.00780645,0.00853703
966688,0.0393136,-0.00963996,-9.81419,966688,-0.00166467,0.00658919,0.00548735
967300,0.020274,-0.000112766,-9.78553,967300,-0.00166502,0.00476454,0.00548685
967911,0.0294691,0.0094156,-9.73797,967911,0.000175081,0.00415733,0.0079416
968511,0.0814938,-0.00961659,-9.75253,968511,0.00131042,0.00354685,-0.00119635
969122,0.0767453,-0.00486103,-9.74774,969122,-0.00166444,0.00780562,0.00548768
969722,0.0719948,0.00464514,-9.74295,969722,-0.0022805,0.0120627,0.00426395
970333,0.100311,-0.0143654,-9.73835,970333,-0.0028515,0.00841444,0.00852691
970944,0.095545,-0.0286092,-9.72881,970944,-0.00348398,0.00780528,0.00547225
971555,0.0955261,-0.0428579,-9.72406,971555,-0.00104725,0.00963072,0.00671305
972155,0.0672215,-0.0523511,-9.72868,972155,0.000165427,0.0078063,0.00672284
972766,0.0531137,-0.0143499,-9.74286,972766,-0.0040852,0.00841355,0.00607714
973377,0.0908928,-0.0191154,-9.74306,973377,-0.00225533,0.00841423,0.00731231
973977,0.0767187,-0.0618622,-9.73826,973977,-0.00101714,0.00476598,0.010371
974588,0.0390642,-0.0618627,-9.76186,974588,-0.00289884,0.00415543,0.00303691
975200,0.0154951,-0.0428572,-9.77125,975200,-0.00405969,0.00658973,0.009126
975800,0.0390946,-0.0143628,-9.77135,975800,-0.000482799,0.00598021,0.00183824
976411,0.053261,-0.0143684,-9.77143,976411,-0.00406014,0.00415686,0.00912534
977022,0.0203287,-0.0143708,-9.79506,977022,-0.00169616,0.00415533,0.00182746
977622,0.0345461,-0.0191331,-9.80465,977622,0.000195537,0.00294156,0.0103807
978233,0.0439904,-0.0191369,-9.8047,978233,-0.00228659,0.0071968,0.00365276
978844,0.0393155,-0.0143906,-9.81419,978844,-0.00220362,0.00841588,0.013411
979444,0.0534272,-0.000138147,-9.80474,979444,-0.000425687,0.00719847,0.00854715
980055,0.0721893,0.00937106,-9.78103,980055,0.000818478,0.00780791,0.0122168
980666,0.0959001,0.00459879,-9.80019,980666,-0.00106851,0.00658898,0.00427275
981266,0.100554,-0.00964565,-9.78595,981266,-0.000990137,0.010849,0.013422
981877,0.0674973,-0.004882,-9.78577,981877,-0.00103714,0.00841462,0.00793247
982488,0.0628979,-0.00489557,-9.80955,982488,-0.00284667,0.00658996,0.00913628
983100,0.0958169,-0.0333938,-9.78118,983100,-0.00408554,0.0065889,0.00607664
983700,0.0769227,-0.0191345,-9.78107,983700,-0.000415344,0.0071988,0.00976689
984311,0.0391247,-0.0286177,-9.77612,984311,-0.00163848,0.00841467,0.0085372
984911,0.0389812,-0.0381004,-9.74757,984911,-0.000452001,0.00476477,0.00549714
985522,0.0671649,-0.0333425,-9.71915,985522,-0.00101714,0.00476598,0.010371
986133,0.0813389,-0.0523505,-9.71923,986133,-0.00107368,0.00658881,0.00366287
986744,0.0768339,-0.0428752,-9.76204,986744,-0.00104265,0.00658981,0.0073221
987344,0.0863745,-0.0381406,-9.78113,987344,0.000776879,0.00659015,0.00733753
987955,0.0720891,-0.0476209,-9.75726,987955,-0.00163893,0.0059818,0.00853654
988566,0.0722006,-0.0191326,-9.78105,988566,0.000729879,0.00415579,0.00184803
989166,0.0817903,-0.0144042,-9.80965,989166,-0.000420857,0.00537398,0.00915652
989777,0.053412,-0.0238881,-9.79999,989777,-0.00107885,0.00658865,0.003053
990388,0.0441262,-0.0524066,-9.82852,990388,0.000756538,0.00841413,0.00489854
990988,0.0771455,-0.0239129,-9.82391,990988,-0.00227555,0.0108464,0.00487349
991600,0.0769133,0.00461859,-9.78105,991600,0.00199553,0.00902341,0.00795835
992211,0.0484804,0.00939272,-9.76187,992211,0.000735281,0.00537239,0.00245823
992822,0.0390323,0.0188977,-9.76181,992822,0.000180595,0.00598215,0.00855196
993422,0.0531137,-0.0143499,-9.74286,993422,-0.00286241,0.00537303,0.00730634
994033,0.0625901,-0.0333591,-9.74769,994033,-0.000446714,0.00537315,0.00610717
994633,0.0720986,-0.00961904,-9.762,994633,-0.00105748,0.0102386,0.00549348
995244,0.0485257,0.0188878,-9.77138,995244,-0.00223947,0.0102394,0.00914242
995855,0.0203439,0.0093792,-9.7998,995855,-0.00346352,0.00658951,0.0079114
996455,0.0675142,-0.0476375,-9.7858,996455,-0.00226647,0.00415638,0.00609141
997066,0.0720381,-0.0428641,-9.74774,997066,-0.000436142,0.00658992,0.00732724
997677,0.0342308,-0.0285942,-9.74278,997677,-0.0023021,0.0071963,0.00182314
998277,0.0390151,-0.0618566,-9.75234,998277,-0.000420399,0.00780685,0.00915719
998888,0.0721288,-0.023874,-9.76677,998888,-0.00227096,0.00780551,0.00548253
999500,0.0578756,0.00939516,-9.75239,999500,0.00138316,0.00537383,0.00734234
1000111,0.0201398,-0.0333485,-9.75699,1000111,0.00013417,0.00658887,0.00306329
1000711,0.0627675,-0.0476326,-9.78102,1000711,0.000745393,0.00415628,0.00367764
1001322,0.105201,-0.00488764,-9.77169,1001322,0.000771709,0.00658998,0.00672766
1001933,0.100407,-0.00962713,-9.75739,1001933,-0.000943139,0.0132833,0.0189115
1002533,0.0721683,-0.0618819,-9.77155,1002533,0.0019745,0.0071981,0.00551837
1003144,0.0772341,-0.061927,-9.83822,1003144,-0.00102714,0.0065903,0.00915171
1003755,0.0818469,-0.0334129,-9.81919,1003755,-0.00289838,0.0065883,0.00303758
1004355,0.0577321,-8.75425e-05,-9.72384,1004355,-0.0010484,0.00354855,0.0067114
1004966,0.0529136,-0.00482395,-9.70478,1004966,-0.00233313,0.00719531,-0.00183608
1005577,0.0720552,-0.0238647,-9.75249,1005577,-0.00103737,0.00719819,0.00793214
1006177,0.0768888,0.00462167,-9.77629,1006177,-0.00290907,0.00476332,0.00181734
1006788,0.0626052,-0.00960915,-9.75243,1006788,-0.000991168,0.00537503,0.0134205
1007400,0.0626789,-0.00961841,-9.76671,1007400,0.000154739,0.00598132,0.00550261
1008000,0.081494,0.0521383,-9.75725,1008000,-0.00107391,0.00537238,0.00366254
1008611,0.0766283,0.0426574,-9.72867,1008611,0.000777567,0.0102395,0.00733852
1009222,0.0342176,0.00466004,-9.74275,1009222,-0.00106208,0.0132795,0.00488443
1009822,0.0720816,-0.0286184,-9.75725,1009822,0.000191512,0.00902356,0.00977253
1010433,0.100533,-0.0191438,-9.78119,1010433,0.000129458,0.00902157,0.00245408
1011044,0.0582174,0.0141026,-9.81903,1011044,0.00140419,0.00719914,0.00978232
1011655,0.0533895,0.0331192,-9.79996,1011655,0.000154968,0.00719775,0.00550294
1012255,0.0673804,0.0426365,-9.7667,1012255,0.000202084,0.0102403,0.0109926
1012866,0.043762,-0.000106646,-9.76185,1012866,-0.00225993,0.0114551,0.00670327
1013466,0.020206,-0.0143553,-9.77126,1013466,-0.000415228,0.00780701,0.00976706
1014077,0.029722,-0.00961771,-9.78558,1014077,-0.0016965,0.00233068,0.00182696
1014688,0.029603,-0.0191035,-9.76179,1014688,-0.000400059,0.00598286,0.0115962
1015300,0.0389718,-0.0143474,-9.74755,1015300,0.00078745,0.00780691,0.0085576
1015900,0.0814031,-0.0286067,-9.7335,1015900,-0.00103737,0.00719819,0.00793214
1016511,0.0955715,-0.0333629,-9.73358,1016511,0.000165885,0.0102392,0.00672351
1017122,0.0484916,-0.019111,-9.76188,1017122,-0.00102185,0.00719869,0.00976175
1017722,0.0344007,-0.0238652,-9.77609,1017722,-0.000446714,0.00537315,0.00610717
1018333,0.0722289,-0.0286369,-9.78581,1018333,-0.00163342,0.00780662,0.0091469
1018944,0.0627563,-0.0191289,-9.781,1018944,-0.000430742,0.00780652,0.00793745
1019555,0.0343441,-0.00485662,-9.76656,1019555,-0.00169582,0.00597998,0.00182795
1020155,0.0532762,0.0093816,-9.77617,1020155,0.00075045,0.00354823,0.00428735
1020766,0.0627714,0.00462108,-9.78574,1020766,-0.0022867,0.00658858,0.00365259
1021366,0.0721704,-0.00487769,-9.77628,1021366,-0.00101645,0.00841528,0.010372
1021977,0.100554,-0.00964565,-9.78595,1021977,0.000171056,0.0102393,0.00733338
1022588,0.0959076,-0.0144037,-9.80021,1022588,0.000818936,0.0102408,0.0122175
1023188,0.053312,-0.0191252,-9.78095,1023188,0.00197404,0.00476523,0.00551771
1023800,0.0436676,-0.00959552,-9.74281,1023800,-0.00107425,0.00354772,0.00366205
1024411,0.0813447,-0.00484747,-9.72396,1024411,0.00135225,0.00598105,0.00368328
1025022,0.0768264,-0.0238727,-9.76203,1025022,0.000803078,0.00841563,0.0103874
1025622,0.0108599,-0.014364,-9.79025,1025622,0.00138339,0.00659026,0.00734267
1026233,0.0343988,-0.0191146,-9.77609,1026233,-0.00104311,0.00415694,0.00732144
1026833,0.0816014,-0.033382,-9.77158,1026833,-0.00164928,0.00598147,0.00731679
1027444,0.0486085,-0.0666294,-9.78095,1027444,0.000170253,0.00598181,0.00733222
1028055,0.0439865,-0.0713905,-9.79997,1028055,0.00077665,0.00537371,0.0073372
1028666,0.04872,-0.0381412,-9.80474,1028666,0.000761021,0.004765,0.00550742
1029266,0.0580397,-0.0333789,-9.78098,1029266,-0.00346364,0.00598129,0.00791124
1029877,0.100539,-0.0333956,-9.7812,1029877,-0.000431316,0.00476543,0.00793662
1030488,0.0817393,-0.00964746,-9.80013,1030488,-0.0046454,0.0071985,0.0115605
1031088,0.0391116,0.00463657,-9.7761,1031088,-0.000430742,0.00780652,0.00793745
1031700,0.0248753,-0.00484981,-9.76175,1031700,-0.000430858,0.0071983,0.00793728
1032311,0.0389473,-0.0143443,-9.74279,1032311,0.00257066,0.00719788,0.00430377
1032911,0.0531855,-0.00960851,-9.75714,1032911,-0.00103151,0.0108477,0.008543
1033511,0.0344196,-0.00961649,-9.78084,1033511,-0.00104713,0.0102389,0.00671322
1034122,0.0248772,-0.00960042,-9.76176,1034122,0.00200541,0.00659087,0.00917743
1034722,0.0578606,0.0474001,-9.75237,1034722,0.00258043,0.00415712,0.00552269
1035333,0.0389456,0.0521612,-9.74751,1035333,0.00016991,0.00415716,0.00733172
1035944,0.0295352,0.0284088,-9.75224,1035944,0.000693567,0.00354641,-0.00242123
1036544,0.0579172,0.0283914,-9.7619,1036544,0.000186112,0.00780696,0.00916233
1037155,0.0296089,0.0283995,-9.76652,1037155,0.00315155,0.0084136,0.00125989
1037766,-0.00348777,0.00941629,-9.75684,1037766,0.000190938,0.00598248,0.00977171
1038366,-0.00342368,-0.0285948,-9.76638,1038366,0.00254998,0.00719722,0.00186428
1038977,0.00613771,-0.0143621,-9.79022,1038977,0.00142499,0.00780802,0.012222
1039588,0.0155537,-0.00486152,-9.78551,1039588,-0.00288804,0.00658863,0.00425732
1040188,0.0437657,-0.00960787,-9.76185,1040188,-0.000394315,0.00902411,0.0122069
1040800,0.034363,0.00939213,-9.77131,1040800,0.00133685,0.00658877,0.00185383
1041411,0.034497,-0.019127,-9.79513,1041411,0.00199518,0.00719876,0.00795785
1042022,0.0676444,-0.0666554,-9.80961,1042022,-0.00167479,0.00780529,0.00426794
1042622,0.0819298,-0.0571752,-9.83348,1042622,0.000802964,0.00780741,0.0103872
1043233,0.0630073,-0.0334116,-9.82861,1043233,-0.00104254,0.00719802,0.00732226
1043833,0.0441225,-0.0429054,-9.82852,1043833,0.000196338,0.00719908,0.0103819
1044444,0.0534385,-0.0286418,-9.80476,1044444,-0.00164928,0.00598147,0.00731679
1045055,0.0814976,-0.0191178,-9.75253,1045055,-0.00165973,0.00537292,0.00609688
1045666,0.0862405,-0.00962154,-9.75731,1045666,-0.0010376,0.00598175,0.00793181
1046266,0.0862085,0.00938399,-9.75254,1046266,-0.00107345,0.00780524,0.0036632
1046877,0.0720891,-0.0476209,-9.75726,1046877,-0.00101634,0.0090235,0.0103721
1047488,0.0487313,-0.0666449,-9.80476,1047488,-0.00107288,0.0108463,0.00366403
1048088,0.0818941,-0.0286684,-9.8287,1048088,-0.000420628,0.00659042,0.00915685
1048700,0.0723969,-0.0191573,-9.81913,1048700,-0.00107919,0.00476399,0.00305251
1049311,0.0297484,-0.0143714,-9.79035,1049311,-0.00285207,0.00537336,0.00852608
1049911,0.0250301,-0.0238708,-9.79033,1049911,-0.00293918,0.00962806,-0.00184057
1050522,0.0580946,0.014118,-9.79523,1050522,-0.00102128,0.0102398,0.00976258
1051133,0.0864483,0.023605,-9.80013,1051133,0.00256101,0.0108468,0.00308502
1051733,0.0862122,-0.000117233,-9.75255,1051733,-0.00103243,0.00598192,0.00854168
1052344,0.0623504,0.0141748,-9.70481,1052344,0.00015991,0.00598148,0.00611248
1052955,0.0577435,0.0331637,-9.72858,1052955,-0.00163342,0.00780662,0.0091469
1053566,0.0673124,0.0283939,-9.75243,1053566,-0.00169064,0.00598015,0.00243782
1054166,0.0672897,0.0236464,-9.74767,1054166,0.000185996,0.00719875,0.00916216
1054777,0.0671614,0.0379136,-9.72386,1054777,-0.00163882,0.00659002,0.0085367
1055377,0.0718873,0.0284105,-9.72389,1055377,-0.00105771,0.00902217,0.00549315
1055988,0.0909363,-0.00486971,-9.75257,1055988,-0.00408014,0.0078055,0.00668685
1056600,0.0909739,-0.0381271,-9.75736,1056600,0.00073011,0.00537222,0.00184836
1057200,0.0862122,-0.000117233,-9.75255,1057200,-0.00103794,0.0041571,0.00793131
1057811,0.0814826,0.0188871,-9.75251,1057811,0.000766879,0.00841447,0.00611828
1058422,0.0672348,-0.0238505,-9.73342,1058422,0.000222998,0.0114574,0.0134324
1059033,0.0908002,-0.0333549,-9.72403,1059033,-0.00108414,0.00598026,0.00244297
1059633,0.123972,-0.0191315,-9.74799,1059633,-0.000426145,0.0047656,0.00854649
1060244,0.10035,0.00938149,-9.74785,1060244,-0.00166962,0.00780546,0.0048778
1060855,0.0957491,0.0141185,-9.77163,1060855,-0.00100094,0.00841578,0.0122016
1061455,0.072295,-0.00964373,-9.80008,1061455,0.000134055,0.00598065,0.00306312
1062066,0.0673538,-0.0143647,-9.75722,1062066,0.00141959,0.00659142,0.0116118
1062677,0.0862197,-0.0191197,-9.75256,1062677,0.000149569,0.00598115,0.00489274
1063277,0.077019,-0.0143962,-9.80011,1063277,0.000180481,0.00537393,0.0085518
1063888,0.0816694,-0.0191394,-9.78586,1063888,-0.00044097,0.0084144,0.00671787
1064500,0.057866,-0.0286066,-9.74766,1064500,0.00261169,0.00537455,0.00918224
1065100,0.0862744,-0.0333777,-9.76209,1065100,-0.000462113,0.00598087,0.00427772
1065711,0.081643,-0.0143857,-9.78109,1065711,-0.00104208,0.00963089,0.00732292
1066322,0.0627714,0.00462108,-9.78574,1066322,-0.00468171,0.00658912,0.00729124
1066922,0.095902,-0.000151822,-9.8002,1066922,-0.00285173,0.00719801,0.00852658
1067533,0.0581304,-0.0143888,-9.80001,1067533,-0.00104265,0.00658981,0.0073221
1068144,0.0201908,-0.0381053,-9.76651,1068144,-0.00163848,0.00841467,0.0085372
1068755,0.0576792,0.00941985,-9.71431,1068755,-0.00101657,0.00780707,0.0103718
1069355,0.08605,0.0379062,-9.72396,1069355,0.000180824,0.00719858,0.0085523
1069966,0.076785,0.0188859,-9.75725,1069966,0.000181053,0.00841501,0.00855263
1070566,0.0862651,-0.00962463,-9.76207,1070566,-0.0016487,0.00902256,0.00731762
1071177,0.0957886,-0.0238895,-9.77641,1071177,-0.00223441,0.00963132,0.00975213
1071788,0.100432,-0.00963022,-9.76215,1071788,-0.0028407,0.0108476,0.00974732
1072388,0.0957868,-0.0191388,-9.77641,1072388,-0.000404885,0.00780735,0.0109868
1073000,0.0958604,-0.0191481,-9.79069,1073000,-0.00224533,0.00658991,0.00853156
1073611,0.0768208,-0.0096209,-9.76202,1073611,-0.00105782,0.00841396,0.00549299
1074222,0.0295748,-0.0095992,-9.75702,1074222,-0.00226061,0.00780584,0.00670227
1074822,0.057985,-0.0191209,-9.77145,1074822,-0.000404885,0.00780735,0.0109868
1075433,0.0956603,-0.00962218,-9.7526,1075433,-0.000451772,0.0059812,0.00549747
1076033,0.0908343,0.00464386,-9.73353,1076033,-0.00165456,0.00537309,0.00670675
1076644,0.0719892,0.018897,-9.74294,1076644,-0.00226613,0.00598103,0.00609191
1077255,0.0768642,0.00462476,-9.77153,1077255,-0.00284104,0.00902299,0.00974682
1077866,0.0769699,-0.01439,-9.79059,1077866,-0.000477282,0.00780503,0.00244861
1078466,0.0957755,0.00936483,-9.77639,1078466,0.000149226,0.0041565,0.00489224
1079077,0.0862085,0.00938399,-9.75254,1079077,0.000746081,0.00780559,0.00367863
1079688,0.0533629,-0.023882,-9.79047,1079688,-0.00103243,0.00598192,0.00854168
1080288,0.0533403,-0.0286295,-9.78572,1080288,-0.00167502,0.00658886,0.00426761
1080900,0.0719626,-0.0381042,-9.73346,1080900,-0.00287735,0.00841361,0.00547756
1081511,0.0721155,-0.0523745,-9.76203,1081511,-0.004697,0.00780506,0.00546196
1082111,0.058068,-0.0428832,-9.78575,1082111,-0.000399143,0.0108486,0.0115975
1082722,0.081524,-0.0238715,-9.7573,1082722,-0.000455797,0.0120632,0.00488925
1083333,0.0815995,-0.0286314,-9.77158,1083333,0.000144742,0.00780564,0.00428336
1083944,0.0675878,-0.0476468,-9.80008,1083944,-0.00224016,0.00659007,0.00914142
1084544,0.0578943,-0.038111,-9.75242,1084544,-0.000430742,0.00780652,0.00793745
1085155,0.0152875,-0.0143288,-9.73315,1085155,-0.00224464,0.0102392,0.00853255
1085755,0.0105616,-0.00482571,-9.73312,1085755,0.000155313,0.0090224,0.00550344
1086366,0.0483406,-0.00959121,-9.73332,1086366,-0.0022451,0.00780634,0.00853189
1086977,0.0674199,0.00462848,-9.77149,1086977,-0.00108425,0.00537204,0.0024428
1087588,0.04383,0.0141359,-9.77612,1087588,-0.000405114,0.00659091,0.0109865
1088188,0.0436713,-0.0190967,-9.74282,1088188,-0.00103656,0.0114557,0.0079333
1088800,0.0815995,-0.0286314,-9.77158,1088800,-0.000419941,0.0102397,0.00915785
1089411,0.0769227,-0.0191345,-9.78107,1089411,-0.00348869,0.010238,0.00486304
1090011,0.0295388,-0.0428473,-9.74752,1090011,-0.00101116,0.00902367,0.010982
1090622,0.0437562,-0.0476097,-9.75712,1090622,-0.000461655,0.00841374,0.00427839
1091233,0.086399,-0.0381437,-9.78589,1091233,0.000175424,0.00598198,0.00794209
1091833,0.0769737,-0.0238913,-9.79059,1091833,-0.00285747,0.00415676,0.00791588
1092444,0.0437959,-0.0238628,-9.76662,1092444,-0.00225084,0.00476509,0.00792119
1093055,0.00141932,-0.0238615,-9.79021,1093055,-0.00104265,0.00658981,0.0073221
1093655,0.0438941,-0.0238751,-9.78566,1093655,-0.00105277,0.00780591,0.00610269
1094266,0.0815712,-0.0191271,-9.76681,1094266,-0.00163779,0.012064,0.00853819
1094877,0.0628432,0.00936244,-9.80002,1094877,-0.00106322,0.00719736,0.00488278
1095477,0.0440037,0.00936371,-9.80944,1095477,0.00138856,0.00659043,0.00795254
1096088,0.0344687,-0.00962266,-9.79037,1096088,0.000750909,0.0059811,0.00428801
1096700,0.0720778,-0.0191172,-9.75725,1096700,0.00200518,0.00537444,0.00917709
1097311,0.0908928,-0.0191154,-9.74306,1097311,-0.00107414,0.00415594,0.00366221
1097911,0.0719514,-0.00960053,-9.73344,1097911,0.00141936,0.00537499,0.0116114
1098522,0.10035,0.00938149,-9.74785,1098522,-0.00108391,0.0071967,0.0024433
1099133,0.0863275,0.0188698,-9.77633,1099133,0.000807563,0.00476649,0.0109963
1099733,0.0532706,0.0236334,-9.77616,1099733,0.000134399,0.0078053,0.00306362
1100333,0.0675936,-0.000143735,-9.80481,1100333,0.000813078,0.00659131,0.0116066
1100933,0.0440301,0.00461002,-9.81421,1100933,0.00194278,0.0035478,0.00185815
1101544,0.0816921,-0.0143919,-9.79061,1101544,-0.000436716,0.00354883,0.00732641
1102155,0.105259,-0.0286469,-9.78122,1102155,-0.00105782,0.00841396,0.00549299
1102766,0.0721402,0.00937723,-9.77151,1102766,-0.000431316,0.00476543,0.00793662
1103366,0.0768605,0.014126,-9.77153,1103366,0.000776535,0.0047655,0.00733703
1103977,0.0816638,-0.00488759,-9.78585,1103977,0.00016474,0.004157,0.00672185
1104588,0.0629318,-0.0286517,-9.81432,1104588,0.000190938,0.00598248,0.00977171
1105188,0.0580888,-0.033385,-9.7905,1105188,-0.000425687,0.00719847,0.00854715
1105800,0.0815939,-0.0143796,-9.77157,1105800,0.000232652,0.00780845,0.0146512
1106411,0.0817091,0.00460746,-9.79536,1106411,0.00132651,0.00658844,0.000634091
1107011,0.0673898,0.0188834,-9.76672,1107011,0.00197967,0.00719826,0.00612823
1107622,0.0720231,-0.00485917,-9.74772,1107622,-0.00106828,0.00780541,0.00427308
1108233,0.0720344,-0.0333628,-9.74773,1108233,0.00143039,0.00902462,0.0128322
1108833,0.0625014,0.00465504,-9.73338,1108833,-0.000487855,0.00658826,0.00122853
1109444,0.0862047,0.0188852,-9.75253,1109444,0.000771709,0.00658998,0.00672766
1110055,0.0673821,-0.023869,-9.76198,1110055,-0.000482453,0.00780486,0.00183873
1110666,0.0154329,-0.0095967,-9.76171,1110666,0.000217138,0.00780796,0.0128216
1111266,0.0154291,-9.54717e-05,-9.7617,1111266,-0.00106345,0.00598092,0.00488245
1111877,0.024915,0.0188971,-9.77126,1111877,-0.00102737,0.00537387,0.00915138
1112488,0.0390796,0.0236421,-9.77133,1112488,-0.000492338,0.0102374,0.000619655
1113088,0.057902,0.00464147,-9.75716,1113088,-0.000445569,0.0114553,0.00610882
1113700,0.0437148,-0.00485108,-9.75233,1113700,0.00320292,0.0065906,0.0073581
1114300,0.0437298,-0.042856,-9.75235,1114300,0.000175081,0.00415733,0.0079416
1114911,0.0389585,-0.0428479,-9.74281,1114911,0.00257032,0.00537323,0.00430327
1115522,0.0438223,-0.0286165,-9.77139,1115522,0.000771822,0.0071982,0.00672782
1116133,0.0957886,-0.0238895,-9.77641,1116133,0.00258618,0.00719838,0.00613338
1116733,0.0815485,-0.0238746,-9.76206,1116733,0.00136271,0.0065896,0.00490319
1117344,0.0391154,-0.00486466,-9.77611,1117344,0.00201564,0.00598299,0.010397
1117955,0.0531988,0.0188921,-9.76188,1117955,0.000771709,0.00658998,0.00672766
1118555,0.0720628,0.0188877,-9.75722,1118555,0.000797678,0.00719903,0.00977718
1119166,0.0626525,-0.00486471,-9.76195,1119166,0.00138867,0.00719864,0.00795271
1119777,0.0484954,-0.0286122,-9.76189,1119777,0.000211738,0.00659136,0.0122114
1120377,0.0154555,-0.00484917,-9.76646,1120377,0.00134719,0.0065891,0.00307357
1120988,0.0202985,-0.000115853,-9.79029,1120988,0.00261169,0.00537455,0.00918224
1121600,0.0628243,-0.00488631,-9.79527,1121600,0.00317752,0.00902264,0.00430941
1122200,0.0532271,0.00938777,-9.76665,1122200,-0.000415115,0.00841523,0.00976723
1122811,0.0533026,0.0046279,-9.78093,1122811,0.000745622,0.00537272,0.00367797
1123422,0.0629998,-0.0144091,-9.8286,1123422,0.000839047,0.00720035,0.0146561
1124022,0.0392909,-0.0143875,-9.80943,1124022,0.000771593,0.00598176,0.00672749
1124633,0.0533045,-0.000122715,-9.78094,1124633,0.0014297,0.00537532,0.0128312
1125244,0.0533819,-0.0096332,-9.79522,1125244,0.00136833,0.00902263,0.00551372
1125855,0.0440017,-0.0476405,-9.80472,1125855,0.00138867,0.00719864,0.00795271
1126455,0.048822,-0.0476547,-9.82378,1126455,0.000761824,0.00902252,0.00550858
1127066,0.067639,0.00935132,-9.81432,1127066,-0.00104254,0.00719802,0.00732226
1127666,0.090993,0.0378765,-9.76683,1127666,-0.00101657,0.00780707,0.0103718
1128277,0.0721421,0.00462662,-9.77151,1128277,-0.00348961,0.00537225,0.00486172
1128888,0.0485615,-0.00961899,-9.77616,1128888,-0.00168559,0.00537209,0.00304753
1129500,0.0390625,0.00464274,-9.76658,1129500,0.000144972,0.00902207,0.00428369
1130100,0.0485597,-0.00486838,-9.77615,1130100,0.00200587,0.00902374,0.00917809
1130711,0.0579813,-0.00961963,-9.77145,1130711,0.00136776,0.00598155,0.0055129
1131322,0.0814712,-0.0143641,-9.74777,1131322,-0.00103782,0.00476532,0.00793148
1131922,0.0813636,0.00940128,-9.72871,1131922,0.000729879,0.00415579,0.00184803
1132533,0.0484785,0.0141433,-9.76186,1132533,0.00079722,0.00476616,0.00977652
1133144,0.0250018,-0.0143665,-9.78556,1133144,-0.00104759,0.00780607,0.00671256
1133744,0.0626882,-0.0333715,-9.76673,1133744,-0.00160779,0.00659102,0.0121959
1134355,0.0767698,-0.00486412,-9.7525,1134355,-0.00105322,0.00537304,0.00610203
1134966,0.058072,0.00937047,-9.79048,1134966,-0.000400288,0.00476643,0.0115958
1135566,0.0723441,-0.00964991,-9.8096,1135566,-0.00282575,0.00780706,0.0115761
1136177,0.0531911,-0.0238603,-9.75715,1136177,-0.000437059,0.00172418,0.00732592
1136788,0.053091,-0.0190974,-9.73811,1136788,-0.00106368,0.00476449,0.00488212
1137388,0.0956848,-0.00962527,-9.75736,1137388,-0.00163353,0.0071984,0.00914673
1138000,0.0956621,-0.0143728,-9.7526,1138000,0.000160025,0.0065897,0.00611264
1138611,0.0720061,-0.0238585,-9.74297,1138611,-0.00229681,0.00780468,0.00243318
1139222,0.07663,-0.0238481,-9.72395,1139222,-0.000409715,0.00963183,0.0103774
1139822,0.0719287,-0.0143481,-9.72868,1139822,-0.00410611,0.00719646,0.00363733
1140433,0.0436902,-0.004848,-9.74757,1140433,0.00075585,0.00476483,0.00489755
